aX,aY,aZ,gX,gY,gZ
0.138,-0.204,2.123,78.735,28.259,-19.714
0.150,-0.219,2.018,59.692,5.493,-18.066
0.178,-0.265,1.890,41.504,-14.282,-15.259
0.201,-0.335,1.753,29.480,-27.466,-13.733
0.216,-0.395,1.629,26.733,-35.278,-15.747
0.222,-0.418,1.543,33.813,-36.926,-21.545
0.201,-0.413,1.507,48.462,-33.630,-30.273
0.185,-0.371,1.488,67.078,-28.503,-40.283
0.162,-0.296,1.483,86.304,-22.522,-49.622
0.144,-0.208,1.508,101.624,-15.747,-56.946
0.131,-0.100,1.516,110.474,-12.268,-60.913
0.141,-0.050,1.539,111.511,-12.207,-60.730
0.150,-0.007,1.524,103.210,-17.822,-57.922
0.167,0.012,1.456,88.379,-27.283,-53.955
0.182,0.011,1.366,71.228,-37.292,-49.500
0.187,0.002,1.315,55.969,-45.959,-45.959
0.181,-0.026,1.276,50.110,-53.528,-44.006
0.177,-0.081,1.157,57.800,-61.951,-43.579
0.180,-0.085,0.990,67.200,-69.031,-46.448
0.170,-0.038,0.840,72.632,-71.838,-50.659
0.163,0.022,0.703,73.730,-70.984,-53.345
0.140,0.062,0.583,70.496,-69.031,-53.833
0.128,0.089,0.460,64.758,-65.857,-52.002
0.117,0.088,0.308,59.937,-61.584,-48.462
0.099,0.074,0.199,52.612,-55.969,-44.922
0.078,0.034,0.220,46.326,-48.401,-42.419
0.059,-0.017,0.281,51.025,-42.969,-41.931
0.054,-0.091,0.164,67.932,-44.495,-43.396
0.044,-0.115,-0.043,79.224,-47.424,-46.875
0.008,-0.081,-0.176,76.965,-43.884,-51.025
0.002,-0.021,-0.230,71.045,-34.729,-51.575
-0.011,0.025,-0.300,68.359,-25.085,-49.011
-0.030,0.075,-0.376,64.880,-16.663,-44.006
-0.031,0.079,-0.429,58.594,-7.141,-36.865
-0.024,0.059,-0.423,47.241,2.441,-28.870
-0.016,0.003,-0.390,33.569,11.108,-22.461
-0.020,-0.029,-0.365,22.827,16.602,-18.921
-0.038,-0.035,-0.394,16.357,19.836,-17.273
-0.072,-0.001,-0.445,11.841,23.865,-15.747
-0.097,0.003,-0.490,8.118,31.250,-11.841
-0.098,-0.037,-0.473,3.296,40.955,-5.249
-0.083,-0.085,-0.372,-7.080,51.697,1.892
-0.054,-0.109,-0.305,-20.203,57.983,8.728
-0.027,-0.160,-0.252,-33.020,59.937,14.160
-0.014,-0.180,-0.128,-47.668,61.829,15.503
-0.047,-0.157,-0.011,-62.012,61.584,12.451
-0.093,-0.098,0.004,-71.960,57.922,8.423
-0.130,-0.042,-0.026,-76.416,57.739,6.042
-0.152,-0.032,0.004,-76.355,65.430,6.897
-0.126,-0.059,0.130,-71.411,78.735,10.620
-0.085,-0.116,0.346,-65.063,91.980,14.893
-0.074,-0.150,0.612,-66.101,97.961,17.090
-0.090,-0.096,0.914,-80.566,92.773,15.747
-0.162,-0.019,1.162,-108.215,75.806,13.367
-0.278,0.059,1.332,-138.550,49.683,13.062
-0.385,0.056,1.342,-153.442,24.170,15.808
-0.496,-0.007,1.248,-158.325,5.615,20.081
-0.564,-0.054,1.186,-161.926,-1.221,23.071
-0.576,-0.077,1.174,-157.227,3.174,24.353
-0.553,-0.062,1.244,-142.761,13.916,22.522
-0.503,0.013,1.358,-125.488,26.794,17.273
-0.456,0.146,1.519,-109.436,37.109,11.108
-0.461,0.286,1.778,-94.788,46.021,6.287
-0.473,0.295,2.043,-79.529,50.232,6.165
-0.500,0.405,2.271,-68.298,45.227,8.850
-0.523,0.409,2.324,-60.120,35.156,18.005
-0.517,0.290,2.326,-56.763,25.330,30.396
-0.408,0.124,2.418,-53.650,19.897,41.443
-0.405,-0.154,2.304,-48.584,11.780,47.424
-0.353,-0.159,2.246,-45.898,6.348,44.189
-0.245,-0.158,2.215,-30.945,10.132,38.452
-0.164,-0.163,2.409,-9.094,18.555,31.006
-0.173,0.077,2.439,12.085,15.747,22.827
-0.220,0.470,2.394,33.630,20.447,22.034
-0.104,0.336,2.568,48.645,23.376,32.898
-0.147,0.330,2.590,46.143,4.395,42.358
-0.136,0.329,2.415,40.833,-23.621,54.016
-0.130,0.265,2.165,31.738,-45.105,66.650
-0.115,0.125,1.928,18.616,-59.143,75.928
-0.097,-0.003,1.708,10.437,-65.857,78.308
-0.096,-0.036,1.522,11.169,-64.331,74.036
-0.100,-0.021,1.395,22.705,-55.786,66.833
-0.112,0.024,1.297,37.415,-45.898,59.448
-0.121,0.077,1.274,48.035,-37.231,53.528
-0.122,0.159,1.260,57.800,-29.663,51.208
-0.097,0.202,1.296,67.505,-24.780,53.589
-0.077,0.241,1.303,71.716,-25.574,59.326
-0.008,0.273,1.210,69.092,-29.053,67.688
0.052,0.190,1.119,63.843,-33.020,76.355
0.114,0.060,1.072,59.082,-36.560,83.069
0.200,-0.122,1.005,55.664,-39.612,85.999
0.234,-0.241,0.958,48.706,-43.579,81.177
0.246,-0.268,0.874,39.551,-48.645,73.608
0.267,-0.267,0.760,35.828,-52.185,66.650
0.290,-0.242,0.616,34.607,-52.368,61.035
0.338,-0.193,0.512,33.936,-46.936,57.129
0.333,-0.150,0.447,36.072,-38.940,53.711
0.386,-0.150,0.394,38.513,-28.015,52.795
0.402,-0.183,0.373,39.246,-17.212,51.208
0.424,-0.231,0.393,40.283,-5.798,48.706
0.454,-0.283,0.452,41.077,3.784,45.044
0.471,-0.313,0.567,38.879,9.827,38.574
0.490,-0.306,0.623,36.743,10.681,31.677
0.516,-0.316,0.604,32.288,6.592,27.100
0.549,-0.283,0.557,21.729,1.831,25.024
0.624,-0.386,0.567,10.681,0.671,24.231
0.648,-0.431,0.576,1.221,-0.244,17.883
0.677,-0.452,0.559,-2.014,-0.183,9.460
0.683,-0.450,0.538,2.319,1.221,0.183
0.659,-0.444,0.534,11.230,3.845,-9.460
0.639,-0.429,0.566,22.217,8.728,-18.066
0.633,-0.409,0.633,33.691,14.832,-25.208
0.622,-0.376,0.681,37.354,17.578,-31.921
0.603,-0.336,0.696,31.006,14.709,-38.086
0.599,-0.297,0.670,22.278,9.766,-43.762
0.587,-0.264,0.643,14.465,6.958,-48.218
0.566,-0.237,0.616,9.033,7.080,-51.270
0.529,-0.199,0.618,7.385,9.949,-53.711
0.470,-0.161,0.692,7.019,16.724,-54.993

0.049,0.175,2.323,44.617,27.039,-0.793
0.009,0.126,2.211,39.795,3.784,4.211
0.004,0.048,2.015,34.302,-15.625,8.362
0.000,0.004,1.826,29.968,-26.306,8.484
0.029,-0.005,1.640,32.349,-27.710,6.287
0.040,-0.007,1.492,45.959,-21.179,2.258
0.072,-0.006,1.450,68.237,-6.836,-1.953
0.098,-0.032,1.505,93.872,10.742,-7.080
0.131,-0.093,1.600,118.225,24.963,-12.695
0.134,-0.165,1.672,135.742,31.860,-18.555
0.132,-0.215,1.729,145.203,32.837,-24.414
0.125,-0.195,1.717,148.071,26.794,-30.151
0.129,-0.100,1.662,142.700,15.991,-33.997
0.149,-0.016,1.545,130.981,2.380,-33.203
0.190,-0.002,1.372,117.371,-11.963,-28.259
0.242,-0.067,1.174,103.516,-23.071,-21.667
0.288,-0.227,1.005,92.773,-27.954,-16.602
0.339,-0.373,0.865,87.341,-26.794,-15.869
0.362,-0.439,0.726,83.862,-23.132,-20.752
0.424,-0.470,0.693,78.918,-16.418,-29.724
0.397,-0.440,0.814,77.209,-6.836,-44.250
0.436,-0.398,0.916,90.637,-2.808,-60.059
0.404,-0.303,0.912,110.535,-9.888,-75.928
0.428,-0.141,0.787,125.854,-22.339,-88.928
0.393,0.042,0.597,126.038,-36.560,-97.900
0.379,0.184,0.411,115.845,-47.791,-99.976
0.350,0.235,0.304,102.905,-52.368,-96.313
0.291,0.276,0.196,88.318,-56.335,-89.539
0.250,0.277,0.044,77.698,-59.692,-80.872
0.232,0.222,-0.098,68.481,-59.387,-71.960
0.217,0.184,-0.192,55.237,-54.199,-65.369
0.191,0.151,-0.289,44.739,-46.875,-60.669
0.192,0.096,-0.322,40.955,-37.170,-57.373
0.174,0.044,-0.249,43.091,-22.644,-57.617
0.155,0.036,-0.184,50.537,-10.315,-60.120
0.140,0.070,-0.228,56.519,-5.981,-62.439
0.090,0.143,-0.269,53.101,-2.747,-62.683
0.052,0.237,-0.248,40.222,2.991,-59.082
0.023,0.293,-0.219,26.550,8.484,-50.415
0.004,0.300,-0.253,15.137,10.193,-37.720
0.010,0.212,-0.309,5.920,11.780,-23.987
0.023,0.054,-0.320,-0.977,18.066,-12.390
0.039,-0.108,-0.274,-6.470,27.100,-6.775
0.028,-0.210,-0.220,-11.108,34.912,-7.446
0.021,-0.229,-0.169,-18.372,40.710,-12.329
-0.017,-0.222,-0.125,-27.283,45.837,-16.296
-0.037,-0.177,-0.083,-35.889,50.354,-19.043
-0.037,-0.137,-0.058,-43.335,54.199,-19.592
-0.024,-0.100,-0.012,-52.795,58.044,-18.860
-0.016,-0.077,0.085,-64.819,62.073,-17.883
-0.020,-0.072,0.199,-78.064,65.063,-17.273
-0.023,-0.062,0.296,-88.806,64.880,-16.602
-0.035,-0.100,0.425,-91.553,63.721,-15.869
-0.065,-0.154,0.540,-89.783,63.354,-15.747
-0.103,-0.174,0.626,-94.727,59.448,-16.602
-0.147,-0.177,0.707,-105.652,54.504,-18.066
-0.185,-0.170,0.812,-117.065,50.720,-18.738
-0.197,-0.144,0.874,-124.451,45.776,-20.203
-0.189,-0.123,0.837,-127.014,36.438,-21.790
-0.220,-0.087,0.859,-135.559,29.663,-29.114
-0.269,0.002,0.986,-147.217,30.640,-38.147
-0.374,0.105,1.150,-148.132,29.968,-45.654
-0.529,0.240,1.345,-138.733,29.846,-50.293
-0.687,0.388,1.652,-126.404,30.640,-47.546
-0.822,0.424,1.932,-117.493,26.245,-36.804
-0.899,0.341,2.214,-119.080,18.677,-21.729
-0.986,0.270,2.321,-132.568,-0.244,-6.714
-0.952,0.183,2.356,-150.696,-26.978,5.310
-1.021,0.120,2.107,-161.133,-56.152,14.709
-1.078,0.130,1.693,-155.579,-73.730,17.639
-1.130,0.225,1.414,-138.123,-66.345,13.306
-1.139,0.341,1.408,-107.056,-32.715,10.071
-1.078,0.370,1.639,-65.857,12.268,12.268
-1.033,0.401,1.986,-31.616,44.373,15.869
-0.980,0.462,2.389,-10.132,61.707,22.461
-0.927,0.630,2.638,5.737,61.646,32.532
-0.828,0.730,2.707,16.418,46.448,48.523
-0.776,0.809,2.569,16.785,24.841,68.115
-0.627,0.764,2.389,18.860,10.559,90.637
-0.432,0.538,2.262,30.212,9.033,110.046
-0.242,0.308,2.141,41.870,8.667,119.385
-0.081,0.122,2.055,56.641,10.498,118.286
0.006,0.017,2.013,70.007,12.207,110.657
0.033,-0.051,1.999,79.346,10.803,101.624
0.052,-0.047,1.966,85.815,5.005,92.590
0.105,0.042,1.862,90.515,-5.554,84.473
0.188,0.167,1.656,91.980,-20.203,80.872
0.271,0.216,1.480,91.492,-30.518,82.764
0.387,0.156,1.331,90.088,-34.119,88.440
0.466,0.014,1.211,87.646,-35.828,93.872
0.514,-0.112,1.092,80.444,-37.720,95.337
0.551,-0.237,0.970,68.665,-40.588,90.759
0.560,-0.190,0.822,55.664,-43.030,81.360
0.592,-0.157,0.707,53.528,-41.321,72.937
0.596,-0.133,0.664,63.049,-32.715,66.162
0.642,-0.181,0.621,75.989,-25.391,63.110
0.690,-0.310,0.575,86.426,-19.348,60.242
0.747,-0.419,0.545,88.684,-13.306,54.199
0.785,-0.479,0.508,85.938,-8.057,45.105
0.797,-0.456,0.477,81.299,-3.723,33.630
0.792,-0.383,0.441,76.355,-0.183,23.010
0.785,-0.308,0.407,70.801,3.357,16.113
0.785,-0.249,0.396,61.584,7.202,11.841
0.808,-0.219,0.389,49.561,10.437,9.338
0.832,-0.223,0.417,38.635,13.428,6.531
0.832,-0.262,0.501,30.029,17.151,2.197
0.845,-0.321,0.563,26.062,20.264,-2.747
0.867,-0.354,0.632,25.269,21.423,-10.193
0.841,-0.337,0.628,23.987,14.954,-19.348
0.833,-0.267,0.585,20.203,10.437,-23.743
0.796,-0.235,0.591,13.123,11.658,-25.391
0.765,-0.224,0.620,4.822,11.108,-27.161
0.739,-0.277,0.652,3.479,11.475,-28.503
0.701,-0.342,0.683,5.005,12.085,-35.034
0.636,-0.358,0.722,7.141,12.451,-45.715
0.582,-0.340,0.761,11.475,13.428,-57.495
0.514,-0.259,0.771,15.930,12.695,-68.542
0.441,-0.170,0.771,18.188,10.559,-75.806
0.353,-0.124,0.808,15.686,10.010,-77.881

-0.897,0.052,2.011,-79.956,45.837,-15.076
-0.956,0.097,2.311,-86.426,35.217,-8.362
-0.961,0.126,2.389,-97.412,7.690,1.221
-0.986,0.308,2.195,-104.797,-21.484,11.902
-0.915,0.356,1.995,-98.206,-39.368,27.161
-0.859,0.380,1.903,-86.365,-38.208,41.077
-0.760,0.335,1.836,-69.702,-27.588,53.223
-0.682,0.228,1.815,-49.927,-13.672,62.073
-0.627,0.182,1.889,-32.898,2.014,66.833
-0.602,0.083,2.036,-20.874,14.038,71.472
-0.604,0.064,2.130,-19.287,17.395,74.463
-0.542,0.003,2.141,-17.029,13.062,78.857
-0.441,-0.081,2.130,-10.559,10.986,81.848
-0.342,-0.144,2.109,0.610,8.850,80.994
-0.217,-0.195,2.068,18.250,8.911,76.233
-0.119,-0.182,2.013,35.889,9.216,68.359
-0.073,-0.128,1.950,50.354,9.155,59.570
-0.058,-0.095,1.891,63.782,9.216,52.673
-0.070,-0.064,1.888,71.411,7.629,48.584
-0.102,0.002,1.871,74.463,1.587,47.546
-0.086,0.068,1.777,76.050,-7.507,49.011
-0.049,0.168,1.579,73.181,-21.118,52.063
0.036,0.177,1.404,68.237,-30.579,57.495
0.120,0.061,1.307,63.538,-33.752,64.453
0.219,-0.094,1.236,59.143,-35.706,68.176
0.276,-0.176,1.126,57.800,-38.757,65.857
0.287,-0.185,0.999,60.730,-41.626,60.608
0.289,-0.163,0.862,68.115,-41.443,53.711
0.306,-0.122,0.740,73.547,-37.781,47.302
0.341,-0.052,0.633,73.364,-32.288,42.236
0.365,0.002,0.551,69.153,-26.306,40.039
0.399,-0.026,0.536,63.110,-17.212,41.809
0.451,-0.167,0.556,56.396,-8.423,44.678
0.494,-0.283,0.586,44.189,-4.822,44.006
0.523,-0.351,0.636,33.386,-4.578,38.696
0.561,-0.386,0.643,32.959,-6.226,30.212
0.569,-0.366,0.610,34.241,-8.606,18.494
0.569,-0.255,0.527,30.640,-12.146,6.958
0.565,-0.151,0.432,31.067,-11.780,-1.099
0.566,-0.087,0.403,33.936,-4.395,-5.432
0.583,-0.021,0.439,33.875,5.859,-8.179
0.574,0.032,0.498,34.546,15.869,-8.667
0.583,0.036,0.560,35.828,23.560,-6.836
0.581,-0.033,0.651,32.654,28.687,-3.540
0.600,-0.144,0.743,24.597,30.029,-1.221
0.597,-0.282,0.795,16.296,26.184,-2.380
0.607,-0.380,0.819,11.841,20.386,-8.362
0.594,-0.396,0.802,13.306,15.869,-19.775
0.552,-0.347,0.683,16.418,9.827,-33.569
0.519,-0.250,0.579,19.714,8.423,-45.044
0.473,-0.156,0.535,19.531,14.404,-51.941
0.390,-0.075,0.575,13.367,26.611,-52.368
0.343,-0.042,0.653,12.817,35.522,-54.077
0.278,-0.083,0.718,16.541,37.354,-52.612
0.225,-0.149,0.834,15.381,40.894,-49.377
0.186,-0.239,0.952,9.155,43.213,-47.729
0.161,-0.317,1.047,2.625,39.368,-49.133
0.156,-0.378,1.107,-4.028,29.724,-52.856
0.140,-0.393,1.113,-7.751,16.357,-59.937
0.106,-0.340,1.026,-9.155,-0.610,-68.542
0.047,-0.263,0.900,-10.498,-13.672,-75.806
-0.022,-0.167,0.804,-14.465,-19.470,-80.994
-0.098,-0.081,0.781,-17.151,-18.311,-82.153
-0.155,-0.048,0.814,-15.076,-13.245,-79.590
-0.237,-0.040,0.886,-13.550,-7.874,-75.256
-0.259,-0.024,0.969,-13.062,-4.517,-72.876
-0.290,-0.027,0.989,-11.475,-6.653,-70.374
-0.316,-0.027,0.982,-12.268,-11.658,-67.139
-0.337,-0.040,0.947,-13.428,-15.991,-64.026
-0.374,-0.059,0.906,-13.977,-19.714,-61.584
-0.410,-0.059,0.879,-15.564,-20.203,-59.998
-0.431,-0.057,0.876,-18.127,-18.433,-58.289
-0.443,-0.067,0.898,-19.958,-15.198,-55.969
-0.455,-0.092,0.952,-20.142,-11.536,-53.955
-0.449,-0.112,1.012,-18.372,-8.606,-52.979
-0.461,-0.106,1.064,-16.113,-8.301,-53.528
-0.468,-0.062,1.088,-14.099,-10.132,-54.688
-0.503,0.020,1.105,-11.719,-12.939,-54.810
-0.537,0.081,1.082,-7.874,-16.296,-51.575
-0.553,0.085,1.036,-4.211,-19.531,-45.227
-0.552,0.074,1.015,-4.272,-20.386,-38.391
-0.547,0.057,0.998,-6.226,-19.775,-32.410
-0.533,0.035,0.964,-7.446,-18.677,-27.283
-0.518,0.015,0.934,-7.324,-16.113,-23.132
-0.489,0.003,0.911,-5.981,-12.085,-20.142
-0.478,0.012,0.915,-3.906,-7.019,-18.433
-0.466,0.036,0.958,-1.648,-1.404,-16.724
-0.450,0.037,1.009,1.465,2.930,-13.855
-0.437,0.024,1.057,4.333,4.700,-10.559
-0.418,-0.004,1.081,5.676,3.906,-6.653
-0.393,-0.030,1.074,4.883,0.671,-2.930
-0.370,-0.051,1.035,2.014,-2.502,0.122
-0.355,-0.069,1.001,-1.282,-4.883,3.174
-0.333,-0.101,0.955,-2.197,-6.165,5.981
-0.316,-0.131,0.916,-0.977,-5.554,7.446
-0.300,-0.138,0.900,0.122,-3.418,7.690
-0.284,-0.124,0.900,2.502,-0.305,7.446
-0.268,-0.112,0.917,5.798,3.479,7.507
-0.241,-0.116,0.927,8.545,6.470,8.118
-0.223,-0.120,0.960,9.949,8.789,8.362
-0.204,-0.121,1.000,11.292,10.742,8.118
-0.191,-0.125,1.031,11.719,10.010,7.935
-0.177,-0.129,1.048,10.132,7.080,8.423
-0.166,-0.134,1.032,7.080,2.380,9.399
-0.164,-0.141,0.986,2.991,-3.235,10.864
-0.163,-0.167,0.918,-0.305,-7.202,12.634
-0.156,-0.195,0.862,-2.258,-8.484,13.489
-0.150,-0.218,0.834,-2.502,-6.897,13.489
-0.135,-0.225,0.824,-0.793,-3.479,12.268
-0.131,-0.217,0.844,2.380,1.465,10.315
-0.127,-0.203,0.896,4.822,7.202,8.057
-0.123,-0.199,0.954,7.141,10.864,6.470
-0.115,-0.195,0.990,7.874,11.475,4.883
-0.121,-0.182,1.001,7.202,9.827,3.540
-0.124,-0.160,1.003,5.615,7.019,2.625
-0.133,-0.139,1.001,3.296,3.967,2.686
-0.131,-0.120,0.991,0.244,1.160,4.028
-0.138,-0.128,0.962,-3.784,-1.282,6.104
-0.144,-0.150,0.939,-7.996,-2.747,8.057

0.273,0.110,2.262,107.788,68.176,6.165
0.317,0.013,2.341,121.216,64.697,0.305
0.316,-0.006,2.332,132.385,52.612,-8.301
0.307,0.065,2.220,139.282,35.461,-17.639
0.309,0.112,2.035,143.127,16.052,-22.644
0.333,0.125,1.830,143.005,0.061,-24.963
0.339,0.096,1.625,138.245,-12.695,-25.330
0.354,0.036,1.444,130.493,-23.193,-25.452
0.328,-0.016,1.263,120.789,-31.982,-27.466
0.280,-0.026,1.039,110.962,-39.124,-31.555
0.260,-0.000,0.838,105.164,-39.795,-36.926
0.224,0.055,0.651,102.600,-35.461,-41.626
0.205,0.112,0.505,97.412,-28.015,-44.556
0.230,0.121,0.523,92.468,-16.052,-45.654
0.239,0.065,0.673,93.445,-6.348,-47.791
0.275,-0.023,0.741,109.009,-5.554,-52.063
0.300,-0.068,0.671,126.709,-14.282,-59.326
0.299,-0.006,0.509,133.789,-26.672,-69.397
0.291,0.071,0.379,132.202,-35.767,-77.637
0.281,0.156,0.299,127.136,-40.222,-82.153
0.267,0.191,0.222,121.704,-43.945,-83.130
0.243,0.260,0.155,114.624,-47.668,-82.153
0.218,0.312,0.111,108.093,-50.476,-77.087
0.166,0.345,0.045,95.947,-54.932,-70.251
0.128,0.384,-0.017,75.623,-62.622,-60.730
0.115,0.330,-0.136,60.120,-69.153,-49.438
0.110,0.243,-0.212,49.744,-73.547,-38.818
0.094,0.150,-0.276,42.175,-73.364,-32.288
0.105,0.035,-0.349,43.823,-68.115,-28.625
0.108,-0.047,-0.437,47.424,-61.951,-28.992
0.080,-0.056,-0.500,47.546,-53.528,-32.349
0.049,-0.012,-0.505,42.908,-40.955,-36.499
0.004,0.076,-0.488,36.133,-27.954,-38.330
-0.031,0.158,-0.497,29.236,-19.958,-34.424
-0.063,0.168,-0.518,21.057,-13.611,-24.231
-0.065,0.083,-0.527,10.193,-5.737,-11.597
-0.043,-0.023,-0.492,-4.395,2.808,-1.770
-0.013,-0.156,-0.451,-16.663,11.597,4.822
0.033,-0.291,-0.385,-23.682,20.569,8.118
0.067,-0.375,-0.276,-28.320,28.870,6.531
0.096,-0.370,-0.186,-33.203,34.241,0.122
0.089,-0.319,-0.113,-39.429,37.415,-7.874
0.042,-0.223,-0.066,-47.974,38.696,-15.015
-0.031,-0.071,-0.031,-57.739,39.734,-18.799
-0.071,0.031,-0.022,-65.247,41.565,-17.273
-0.100,0.039,-0.007,-73.486,44.312,-8.667
-0.072,-0.083,0.082,-84.839,52.246,-0.488
-0.000,-0.244,0.276,-99.792,60.791,5.188
0.021,-0.415,0.499,-112.427,60.913,2.625
0.041,-0.517,0.667,-114.685,56.885,-8.179
0.051,-0.484,0.689,-107.056,48.828,-27.039
-0.013,-0.182,0.617,-96.375,40.588,-49.500
-0.208,0.222,0.657,-85.876,43.640,-64.148
-0.341,0.605,0.842,-82.153,57.678,-64.819
-0.467,0.744,1.203,-86.975,71.106,-47.974
-0.516,0.668,1.625,-107.910,73.120,-24.414
-0.510,0.428,1.936,-139.954,54.626,-2.136
-0.476,0.162,2.048,-175.476,22.278,12.085
-0.438,-0.080,2.048,-196.594,-11.047,15.503
-0.500,-0.153,1.868,-194.946,-38.696,8.240
-0.634,-0.065,1.595,-175.598,-51.697,-3.296
-0.638,-0.028,1.449,-147.766,-47.180,-14.465
-0.707,-0.003,1.500,-125.305,-31.311,-23.682
-0.802,0.115,1.574,-109.253,-13.000,-30.151
-0.854,0.232,1.694,-95.886,1.648,-29.602
-0.909,0.371,1.917,-89.539,13.611,-24.475
-0.966,0.495,2.131,-85.632,16.479,-13.733
-0.973,0.514,2.366,-80.505,13.733,1.526
-0.978,0.468,2.417,-74.707,4.150,17.212
-0.982,0.583,2.356,-63.293,-3.723,33.020
-0.894,0.417,2.332,-44.434,-0.183,50.415
-0.825,0.277,2.265,-32.654,2.563,60.242
-0.741,0.094,2.223,-15.259,9.583,64.270
-0.649,0.018,2.226,1.953,16.052,62.866
-0.564,0.013,2.297,17.944,22.949,58.594
-0.480,0.001,2.364,36.133,29.053,54.382
-0.384,0.018,2.381,53.589,31.250,49.011
-0.326,0.150,2.366,67.871,28.259,42.664
-0.283,0.313,2.327,80.566,20.996,41.687
-0.253,0.378,2.250,86.914,8.850,49.133
-0.211,0.336,2.172,83.557,-7.446,61.523
-0.190,0.229,2.014,74.402,-29.907,73.792
-0.177,0.073,1.781,62.500,-49.438,82.947
-0.075,-0.046,1.570,50.415,-59.937,84.717
-0.072,-0.127,1.358,38.818,-67.261,79.468
-0.005,-0.097,1.175,32.410,-67.810,68.115
0.024,-0.002,1.049,34.790,-61.768,57.495
0.005,0.116,0.884,44.006,-56.335,50.293
0.016,0.262,0.738,52.734,-48.767,47.058
0.015,0.388,0.651,54.810,-37.964,47.974
0.065,0.397,0.612,57.434,-26.917,56.702
0.133,0.289,0.660,63.721,-14.893,67.932
0.255,0.132,0.749,66.711,-7.385,76.538
0.345,-0.117,0.810,70.862,-6.348,81.238
0.418,-0.355,0.742,72.266,-14.404,78.552
0.490,-0.464,0.586,66.040,-23.254,67.688
0.482,-0.423,0.451,53.284,-27.588,51.331
0.482,-0.298,0.344,46.936,-23.621,36.743
0.489,-0.168,0.267,47.546,-13.306,26.978
0.499,-0.097,0.257,50.659,-1.221,22.644
0.514,-0.130,0.297,51.392,7.874,22.400
0.559,-0.203,0.368,46.753,17.212,23.499
0.599,-0.272,0.477,37.659,22.827,22.888
0.632,-0.327,0.596,30.640,25.085,20.264
0.686,-0.365,0.686,27.344,24.292,15.137
0.717,-0.388,0.682,25.513,18.066,7.812
0.731,-0.395,0.584,25.452,8.789,-1.343
0.728,-0.360,0.516,22.461,6.592,-11.963
0.717,-0.179,0.496,19.470,12.512,-22.522
0.697,-0.149,0.543,19.043,22.522,-26.855
0.680,-0.103,0.622,14.771,31.494,-29.358
0.649,-0.135,0.715,10.681,36.621,-29.114
0.640,-0.169,0.783,7.690,37.476,-29.907
0.587,-0.230,0.811,4.150,34.424,-31.860
0.573,-0.304,0.832,1.343,31.982,-34.912
0.533,-0.321,0.800,0.549,27.039,-41.382
0.490,-0.325,0.767,2.930,22.644,-49.133
0.449,-0.333,0.749,6.836,22.644,-56.946
0.405,-0.312,0.797,9.460,25.818,-64.758

0.323,0.072,2.385,117.981,59.753,-17.090
0.306,0.105,2.386,111.267,41.138,-18.738
0.307,0.110,2.256,101.135,13.672,-19.348
0.310,0.083,2.084,88.440,-11.841,-16.235
0.315,-0.010,1.890,79.285,-30.334,-12.878
0.332,-0.117,1.738,75.989,-41.077,-12.573
0.329,-0.212,1.571,75.867,-49.011,-17.700
0.284,-0.120,1.381,78.552,-54.199,-27.039
0.245,-0.035,1.211,85.327,-52.307,-33.325
0.195,0.070,1.125,88.745,-43.457,-36.072
0.134,0.135,1.002,88.501,-38.696,-34.546
0.125,0.143,0.892,84.961,-35.950,-30.090
0.195,0.033,0.912,76.172,-28.687,-23.743
0.227,-0.115,1.090,69.885,-21.729,-24.536
0.270,-0.198,1.181,78.003,-24.231,-32.410
0.259,-0.182,1.040,98.694,-38.269,-46.326
0.238,-0.038,0.794,113.159,-53.650,-59.814
0.205,0.105,0.668,114.502,-57.251,-68.359
0.193,0.167,0.610,111.389,-55.481,-70.435
0.157,0.210,0.506,108.948,-56.702,-69.153
0.151,0.178,0.396,110.657,-56.213,-65.674
0.152,0.148,0.328,109.009,-51.208,-62.073
0.118,0.103,0.268,103.271,-45.959,-59.082
0.118,0.052,0.170,96.619,-41.260,-56.274
0.089,0.104,0.072,89.172,-35.156,-53.772
0.112,0.008,0.073,83.069,-25.696,-47.485
0.151,-0.019,0.135,72.754,-17.639,-45.410
0.183,-0.049,0.284,63.171,-11.414,-44.617
0.194,-0.060,0.437,57.068,-10.315,-49.072
0.188,-0.053,0.450,56.030,-21.362,-51.575
0.163,-0.020,0.299,56.030,-38.757,-53.223
0.137,0.023,0.101,49.683,-51.819,-53.162
0.105,0.075,-0.054,35.461,-58.167,-50.720
0.073,0.066,-0.180,23.926,-58.228,-45.349
0.077,0.040,-0.272,16.174,-53.528,-40.344
0.038,0.036,-0.363,11.353,-46.509,-35.889
0.037,0.027,-0.406,11.719,-36.804,-32.593
0.009,0.018,-0.368,10.986,-22.766,-29.663
0.026,0.025,-0.285,6.287,-8.484,-28.198
0.018,0.032,-0.216,2.197,0.244,-27.039
0.011,0.015,-0.198,-0.732,3.601,-24.170
-0.018,-0.031,-0.204,-4.333,5.066,-20.081
-0.013,-0.089,-0.225,-10.620,5.859,-14.954
-0.014,-0.070,-0.241,-20.081,7.263,-9.033
-0.058,-0.098,-0.293,-30.151,10.376,-4.150
-0.034,-0.056,-0.277,-44.617,17.700,-3.540
-0.023,-0.048,-0.217,-53.284,28.931,-1.709
0.007,-0.035,-0.122,-55.237,40.283,-1.465
0.029,-0.063,-0.061,-53.772,48.584,-1.709
-0.002,-0.116,-0.008,-52.856,54.688,-4.883
-0.058,-0.146,0.092,-52.490,63.416,-7.141
-0.073,-0.218,0.243,-49.500,73.486,-9.888
-0.074,-0.281,0.431,-50.781,79.407,-10.681
-0.056,-0.256,0.632,-60.974,79.895,-10.864
-0.040,-0.213,0.828,-71.716,74.036,-11.841
-0.023,-0.073,0.962,-86.121,62.378,-15.625
-0.021,0.065,1.021,-100.403,46.143,-19.592
-0.032,0.158,1.009,-111.267,28.259,-21.851
-0.128,0.219,0.983,-119.995,12.390,-22.827
-0.327,0.145,0.996,-131.165,3.235,-22.217
-0.416,0.035,1.078,-144.348,3.357,-19.897
-0.521,-0.079,1.136,-148.743,1.770,-18.555
-0.606,-0.080,1.242,-144.470,1.526,-20.691
-0.663,-0.004,1.356,-137.878,1.892,-21.729
-0.683,0.059,1.417,-129.211,2.930,-22.766
-0.688,0.159,1.458,-123.230,6.348,-23.071
-0.594,0.229,1.647,-124.268,9.888,-25.208
-0.670,0.369,1.789,-127.380,8.911,-28.259
-0.714,0.373,1.825,-124.268,2.625,-26.367
-0.842,0.513,1.764,-118.652,-4.150,-24.902
-0.890,0.475,1.813,-109.741,-0.366,-15.076
-0.955,0.379,1.984,-106.628,8.972,-4.395
-0.956,0.296,2.199,-107.544,10.803,6.531
-0.961,0.176,2.326,-104.370,5.554,15.015
-0.997,0.491,2.317,-96.802,-3.540,18.738
-0.918,0.437,2.246,-74.280,-3.723,26.306
-0.890,0.507,2.172,-49.988,7.690,28.259
-0.786,0.558,2.216,-25.574,23.010,30.579
-0.653,0.572,2.341,-0.977,40.222,33.630
-0.559,0.570,2.479,17.151,45.166,38.574
-0.499,0.511,2.548,30.945,38.269,46.265
-0.456,0.403,2.526,35.950,24.719,54.993
-0.402,0.325,2.408,32.837,7.019,62.012
-0.376,0.271,2.185,32.043,-10.620,65.857
-0.318,0.230,1.930,34.424,-23.621,67.139
-0.263,0.219,1.712,40.161,-28.198,65.918
-0.206,0.233,1.548,49.744,-25.391,62.866
-0.166,0.261,1.427,63.477,-18.494,60.303
-0.128,0.272,1.305,77.271,-11.780,58.350
-0.124,0.263,1.234,88.501,-5.798,57.983
-0.128,0.240,1.248,91.248,1.892,59.143
-0.093,0.223,1.287,81.787,6.104,61.523
-0.062,0.220,1.354,67.139,4.089,62.927
0.027,0.193,1.323,59.570,-4.578,63.049
0.074,0.021,1.209,56.702,-18.066,62.378
0.114,0.028,1.025,50.293,-28.564,54.993
0.177,-0.015,0.900,45.349,-32.043,47.607
0.223,-0.003,0.793,39.734,-33.142,40.833
0.196,0.053,0.698,37.903,-34.058,38.147
0.197,0.146,0.594,43.457,-30.701,37.109
0.231,0.213,0.517,55.298,-21.301,40.955
0.245,0.212,0.524,63.782,-8.057,47.546
0.307,0.108,0.552,65.918,1.953,54.871
0.368,-0.068,0.553,62.805,7.263,60.120
0.441,-0.226,0.551,52.429,10.437,60.242
0.472,-0.339,0.627,37.842,13.550,52.612
0.497,-0.345,0.678,28.076,14.648,42.175
0.521,-0.319,0.653,24.231,9.705,32.166
0.519,-0.272,0.589,20.752,1.648,24.414
0.534,-0.241,0.526,16.602,-1.587,18.188
0.538,-0.202,0.487,14.282,-0.732,14.160
0.531,-0.168,0.494,10.010,3.479,10.498
0.517,-0.171,0.542,11.841,9.460,7.263
0.529,-0.183,0.578,18.677,15.625,4.089
0.523,-0.223,0.589,23.071,18.616,0.854
0.545,-0.239,0.618,24.048,20.630,-3.540
0.543,-0.269,0.690,22.461,23.621,-7.935
0.556,-0.297,0.753,20.020,25.024,-12.939
0.548,-0.271,0.768,12.878,21.790,-18.677

-0.474,0.641,2.005,-112.122,32.166,-17.578
-0.574,0.568,1.953,-125.977,5.310,-5.066
-0.649,0.458,1.833,-139.587,-18.616,7.324
-0.707,0.372,1.668,-146.179,-35.400,16.174
-0.701,0.362,1.425,-142.151,-42.786,20.020
-0.748,0.474,1.366,-125.854,-31.738,18.250
-0.690,0.453,1.505,-104.980,1.953,18.127
-0.630,0.453,1.779,-85.266,44.678,17.334
-0.560,0.377,2.091,-63.538,73.853,15.869
-0.495,0.307,2.495,-45.532,93.384,11.841
-0.465,0.331,2.845,-34.363,92.102,9.399
-0.436,0.409,2.987,-28.687,67.261,12.024
-0.436,0.522,2.878,-24.902,32.715,18.311
-0.378,0.591,2.658,-21.912,4.211,28.687
-0.354,0.591,2.382,-13.855,-15.381,39.978
-0.311,0.589,2.096,2.747,-23.743,49.805
-0.255,0.527,1.950,24.658,-15.442,56.885
-0.197,0.422,1.938,43.945,-1.831,60.730
-0.171,0.304,1.958,61.340,7.690,62.317
-0.159,0.196,1.981,75.867,11.902,60.791
-0.143,0.133,2.002,81.787,9.460,56.763
-0.141,0.146,1.994,81.848,1.221,49.988
-0.128,0.235,1.904,82.703,-10.254,43.030
-0.138,0.359,1.739,82.886,-24.048,38.269
-0.116,0.473,1.521,81.726,-35.583,37.231
-0.110,0.559,1.336,77.454,-42.297,40.588
-0.090,0.644,1.160,70.801,-43.396,48.645
-0.075,0.587,1.039,71.045,-40.527,61.462
-0.023,0.412,0.925,80.322,-36.682,74.707
0.038,0.117,0.874,89.111,-30.212,82.703
0.073,-0.093,0.868,91.187,-23.499,81.604
0.120,-0.260,0.880,90.515,-15.869,73.792
0.177,-0.232,0.882,85.571,-14.160,58.533
0.203,-0.142,0.840,84.290,-18.188,44.800
0.222,-0.073,0.756,84.412,-21.179,35.034
0.252,0.048,0.644,81.299,-21.423,28.015
0.262,0.173,0.563,78.613,-19.165,25.757
0.281,0.215,0.526,79.163,-12.878,30.701
0.318,0.091,0.508,79.834,-5.981,39.612
0.373,-0.115,0.508,77.148,-1.099,46.021
0.443,-0.241,0.530,67.566,2.808,45.593
0.500,-0.329,0.569,55.664,5.554,39.368
0.540,-0.342,0.612,47.913,5.493,29.724
0.548,-0.287,0.663,43.030,4.639,18.066
0.557,-0.200,0.656,41.443,1.282,8.057
0.557,-0.125,0.613,39.856,-3.784,1.892
0.547,-0.068,0.576,34.485,-6.226,-0.854
0.535,-0.065,0.554,30.396,-6.653,-2.258
0.507,-0.050,0.518,28.320,-7.080,-3.174
0.497,-0.046,0.478,25.146,-5.310,-3.357
0.494,-0.097,0.469,21.240,-1.465,-2.930
0.491,-0.156,0.516,17.029,3.906,-3.113
0.505,-0.229,0.549,16.846,9.460,-5.676
0.541,-0.307,0.588,20.142,12.878,-10.864
0.523,-0.320,0.659,22.095,16.907,-20.874
0.533,-0.294,0.704,24.353,19.226,-30.090
0.510,-0.257,0.747,22.034,19.043,-37.476
0.464,-0.170,0.756,14.221,15.381,-43.274
0.413,-0.080,0.731,7.996,10.437,-45.776
0.352,-0.040,0.685,2.197,6.775,-46.265
0.275,-0.009,0.686,-1.831,6.592,-43.335
0.265,-0.053,0.694,-2.563,9.033,-40.466
0.234,-0.131,0.724,-0.183,10.803,-38.391
0.219,-0.213,0.782,1.587,14.099,-40.405
0.214,-0.267,0.870,3.174,15.808,-47.852
0.183,-0.260,0.938,5.554,14.771,-56.702
0.129,-0.195,0.934,7.141,9.521,-65.613
0.065,-0.097,0.885,6.531,2.991,-71.411
-0.035,0.014,0.816,2.808,-2.136,-71.960
-0.101,0.114,0.778,-2.197,-3.784,-70.679
-0.139,0.127,0.793,-4.272,-1.099,-65.430
-0.145,0.072,0.847,-5.737,3.174,-57.922
-0.129,-0.016,0.916,-8.911,6.287,-52.612
-0.125,-0.076,0.989,-12.939,7.019,-50.171
-0.118,-0.111,1.014,-14.832,4.883,-51.208
-0.160,-0.119,0.997,-15.442,-0.122,-54.443
-0.208,-0.129,0.990,-15.076,-3.540,-56.824
-0.234,-0.147,0.994,-13.062,-4.333,-58.594
-0.258,-0.145,0.998,-10.803,-4.761,-60.669
-0.282,-0.105,1.034,-8.850,-4.639,-62.317
-0.289,-0.058,1.079,-8.606,-4.395,-63.599
-0.321,0.021,1.124,-11.353,-5.493,-64.758
-0.357,0.087,1.125,-12.268,-8.850,-63.171
-0.391,0.131,1.098,-11.169,-13.428,-59.814
-0.431,0.148,1.084,-12.024,-16.479,-55.603
-0.451,0.145,1.059,-13.000,-18.188,-50.598
-0.472,0.135,1.014,-13.306,-19.592,-46.082
-0.478,0.109,0.966,-12.329,-19.653,-41.321
-0.468,0.073,0.931,-10.620,-16.785,-37.354
-0.456,0.059,0.927,-9.766,-12.207,-35.217
-0.438,0.072,0.943,-8.240,-7.019,-34.241
-0.424,0.101,0.984,-5.676,-2.625,-33.386
-0.412,0.147,1.032,-2.563,0.244,-31.494
-0.397,0.200,1.082,-0.671,1.160,-28.137
-0.394,0.217,1.120,0.305,0.000,-22.034
-0.382,0.191,1.106,0.122,-3.235,-14.771
-0.370,0.135,1.066,-1.465,-7.263,-7.874
-0.351,0.073,1.051,-3.235,-8.850,-2.869
-0.328,0.009,1.042,-4.944,-9.094,0.183
-0.314,-0.026,1.011,-5.676,-9.827,1.709
-0.291,-0.025,0.973,-4.456,-9.827,1.892
-0.283,-0.023,0.923,-1.160,-8.728,2.136
-0.273,-0.013,0.881,2.136,-5.920,2.441
-0.257,-0.011,0.887,4.700,-1.038,2.747
-0.240,-0.009,0.953,6.165,5.371,3.296
-0.217,-0.025,1.010,8.179,9.705,4.150
-0.197,-0.039,1.017,10.742,9.888,4.700
-0.180,-0.050,1.018,12.207,8.972,5.005
-0.154,-0.063,1.047,12.573,8.850,5.249
-0.134,-0.072,1.083,11.292,7.385,5.676
-0.121,-0.076,1.084,9.155,2.991,6.653
-0.112,-0.095,1.046,7.690,-2.258,8.057
-0.106,-0.117,1.001,5.249,-6.042,8.911
-0.103,-0.130,0.963,2.625,-7.935,9.094
-0.104,-0.119,0.932,1.770,-7.751,8.606
-0.106,-0.135,0.923,3.601,-5.615,7.812
-0.108,-0.129,0.923,6.409,-2.869,7.019
-0.104,-0.132,0.929,7.202,-0.549,6.226
-0.106,-0.126,0.955,6.287,0.916,5.615

0.110,-0.023,2.468,-28.870,20.325,12.268
0.092,-0.006,2.418,-28.687,2.441,14.038
0.072,0.033,2.307,-19.836,-10.315,12.634
0.014,0.073,2.137,-0.488,-15.381,7.935
-0.029,0.177,2.006,26.062,-10.742,1.587
-0.039,0.289,1.953,56.274,4.089,-4.944
-0.020,0.334,2.045,88.257,29.663,-10.254
0.091,0.305,2.258,113.647,58.472,-14.282
0.176,0.239,2.561,128.235,77.515,-18.127
0.288,0.106,2.799,141.846,81.726,-21.423
0.335,0.019,2.885,144.836,65.857,-28.076
0.302,0.056,2.742,138.062,32.837,-37.354
0.263,0.142,2.414,129.700,-6.653,-44.434
0.207,0.237,2.037,123.474,-38.940,-47.974
0.165,0.330,1.611,126.709,-61.157,-47.791
0.128,0.388,1.189,139.587,-72.632,-44.678
0.088,0.460,0.839,149.597,-73.425,-40.833
0.046,0.499,0.529,154.663,-67.139,-36.133
0.004,0.527,0.276,146.851,-58.289,-31.067
-0.025,0.539,0.165,123.169,-47.791,-24.109
0.020,0.500,0.178,94.177,-37.781,-15.381
0.043,0.408,0.255,72.449,-34.424,-11.169
0.052,0.318,0.274,67.383,-39.124,-12.878
0.016,0.252,0.081,79.346,-50.720,-18.860
0.010,0.213,-0.195,96.863,-59.265,-25.452
-0.005,0.244,-0.334,102.905,-55.176,-31.067
-0.025,0.300,-0.375,104.431,-44.312,-34.424
-0.057,0.359,-0.415,108.887,-33.142,-33.936
-0.073,0.354,-0.469,110.535,-22.888,-29.419
-0.074,0.358,-0.487,103.149,-15.137,-21.790
-0.073,0.270,-0.404,91.675,-7.202,-11.047
-0.086,0.195,-0.305,71.228,-3.174,-1.953
-0.042,0.105,-0.271,42.480,-8.484,7.690
-0.031,-0.026,-0.292,19.714,-15.808,15.076
-0.004,-0.139,-0.302,9.155,-17.822,17.761
0.029,-0.287,-0.381,11.719,-16.602,17.761
0.084,-0.431,-0.479,20.081,-11.292,14.465
0.115,-0.458,-0.463,20.264,0.610,5.981
0.117,-0.414,-0.372,15.259,14.832,-2.686
0.108,-0.347,-0.280,11.902,25.757,-7.935
0.082,-0.298,-0.199,9.583,32.043,-7.812
0.085,-0.335,-0.091,4.395,35.889,-4.211
0.088,-0.361,0.081,-7.690,36.011,-1.892
0.073,-0.346,0.180,-19.897,29.968,-1.587
0.060,-0.290,0.148,-28.931,18.372,-2.319
0.034,-0.219,0.058,-37.231,9.094,-2.258
-0.000,-0.160,0.014,-45.105,6.653,-0.977
-0.041,-0.121,-0.008,-51.208,9.766,1.953
-0.042,-0.056,-0.089,-53.650,11.780,3.662
-0.071,-0.006,-0.152,-58.594,14.526,4.150
-0.044,-0.038,-0.131,-67.871,24.597,6.714
0.016,-0.155,0.012,-78.674,38.940,10.071
0.080,-0.256,0.235,-86.609,51.392,10.559
0.099,-0.307,0.460,-88.806,56.824,5.859
0.076,-0.281,0.558,-83.252,53.284,-1.587
0.025,-0.136,0.547,-81.421,41.992,-8.362
-0.038,0.029,0.504,-78.308,32.410,-13.489
-0.063,0.165,0.459,-75.317,29.663,-13.916
-0.059,0.255,0.462,-83.130,31.799,-9.583
-0.039,0.307,0.557,-94.910,36.682,-4.517
-0.058,0.341,0.748,-109.375,44.922,-2.136
-0.075,0.383,1.022,-127.441,51.575,-0.610
-0.119,0.289,1.314,-144.714,50.354,3.662
-0.113,0.076,1.531,-151.367,41.931,9.094
-0.068,-0.098,1.625,-143.982,26.001,8.240
-0.081,-0.122,1.532,-131.592,6.165,-0.488
-0.075,0.074,1.561,-124.146,-5.310,-13.000
-0.096,0.236,1.432,-117.065,-12.756,-21.667
-0.214,0.392,1.359,-109.497,-11.536,-25.513
-0.267,0.527,1.478,-101.318,-0.610,-24.841
-0.281,0.487,1.683,-88.989,15.015,-21.912
-0.311,0.586,1.949,-90.820,25.574,-18.433
-0.292,0.490,2.272,-105.591,25.208,-9.460
-0.358,0.328,2.440,-121.887,9.583,-0.244
-0.400,0.471,2.490,-126.038,-11.902,7.812
-0.287,0.159,2.444,-112.915,-32.898,16.113
-0.349,0.122,2.241,-103.455,-50.781,12.634
-0.366,0.113,2.101,-84.106,-55.054,6.165
-0.408,0.159,1.997,-58.838,-48.889,-1.099
-0.464,0.277,1.977,-36.316,-39.856,-5.920
-0.515,0.341,2.015,-20.325,-27.954,-6.409
-0.562,0.392,2.097,-15.625,-19.409,-2.930
-0.592,0.429,2.127,-14.160,-17.090,1.465
-0.624,0.594,2.126,-12.085,-17.578,6.653
-0.626,0.696,2.053,-5.554,-17.273,15.015
-0.609,0.714,1.972,3.052,-15.076,24.292
-0.588,0.682,1.861,12.756,-12.207,32.593
-0.532,0.650,1.735,23.376,-6.653,40.161
-0.480,0.548,1.622,33.630,-1.404,46.326
-0.431,0.431,1.516,46.692,1.404,49.194
-0.371,0.312,1.470,58.899,6.348,49.561
-0.260,0.245,1.469,66.040,9.949,46.814
-0.201,0.254,1.442,69.519,6.897,44.189
-0.131,0.336,1.350,73.853,-0.305,44.006
-0.104,0.382,1.218,79.651,-6.531,47.791
-0.077,0.435,1.112,78.247,-8.484,51.025
-0.023,0.408,1.049,76.477,-7.690,55.969
0.026,0.326,1.008,77.759,-6.714,61.462
0.064,0.222,0.952,77.759,-8.362,64.575
0.105,0.072,0.841,77.026,-11.292,64.819
0.129,0.070,0.714,72.144,-13.550,60.608
0.161,0.067,0.659,65.613,-10.986,56.702
0.194,0.054,0.633,60.913,-7.080,53.650
0.235,0.046,0.603,55.847,-6.470,52.124
0.283,0.052,0.572,51.941,-5.432,50.476
0.305,0.010,0.563,52.124,-3.418,48.340
0.360,-0.025,0.568,51.208,0.854,46.082
0.376,-0.059,0.609,52.307,4.150,41.870
0.387,-0.105,0.618,56.335,4.639,36.926
0.428,-0.134,0.582,59.143,4.028,31.616
0.437,-0.160,0.556,56.641,4.456,27.405
0.454,-0.139,0.571,49.438,6.165,22.949
0.474,-0.115,0.592,40.894,7.751,19.165
0.481,-0.104,0.595,31.494,7.507,15.991
0.514,-0.079,0.604,21.606,8.667,13.855
0.519,-0.078,0.651,15.503,10.437,10.986
0.528,-0.094,0.699,13.184,10.498,7.751
0.520,-0.133,0.732,12.878,10.193,4.456
0.524,-0.160,0.775,11.475,7.690,0.305

0.365,0.187,2.384,117.493,94.299,-11.169
0.406,0.134,2.523,126.587,88.989,-14.160
0.438,0.056,2.518,129.700,71.045,-17.334
0.435,0.041,2.367,121.033,47.180,-20.935
0.434,0.014,2.174,108.459,24.536,-23.987
0.436,-0.042,2.027,100.647,6.958,-27.405
0.414,-0.118,1.887,98.022,-8.301,-31.799
0.379,-0.121,1.695,103.210,-25.085,-39.185
0.366,-0.066,1.471,114.929,-40.527,-48.584
0.306,0.030,1.279,124.695,-49.561,-57.007
0.248,0.140,1.086,129.761,-52.490,-61.218
0.183,0.192,0.900,134.399,-54.565,-62.744
0.173,0.221,0.763,131.226,-50.598,-61.218
0.137,0.233,0.704,122.864,-42.908,-58.350
0.109,0.297,0.637,107.849,-37.598,-55.481
0.100,0.347,0.572,89.417,-36.255,-49.500
0.087,0.344,0.523,69.458,-35.217,-40.161
0.086,0.296,0.499,49.866,-37.292,-30.457
0.101,0.258,0.482,36.743,-40.833,-23.315
0.099,0.212,0.406,36.682,-47.668,-20.203
0.119,0.161,0.282,43.579,-55.298,-19.775
0.115,0.123,0.214,50.232,-57.922,-22.888
0.077,0.116,0.179,60.364,-55.237,-29.602
0.063,0.088,0.068,79.407,-54.688,-35.034
0.047,0.025,-0.053,98.694,-55.359,-39.490
0.023,0.000,-0.112,109.375,-50.354,-40.405
0.013,-0.054,-0.092,109.436,-44.556,-37.842
-0.026,-0.068,-0.126,101.074,-46.631,-35.828
-0.048,-0.074,-0.174,89.905,-48.767,-32.410
-0.049,-0.063,-0.204,72.693,-50.598,-28.442
-0.036,-0.083,-0.259,53.894,-50.537,-22.705
-0.036,-0.135,-0.289,36.560,-47.791,-17.578
-0.001,-0.193,-0.315,25.330,-42.786,-14.587
0.005,-0.228,-0.305,19.653,-36.072,-18.372
-0.034,-0.189,-0.288,17.273,-27.588,-24.963
-0.057,-0.103,-0.308,17.639,-22.827,-28.442
-0.102,-0.030,-0.338,15.747,-20.325,-26.855
-0.114,0.013,-0.378,6.653,-16.846,-19.836
-0.123,-0.025,-0.432,-6.409,-13.428,-9.827
-0.092,-0.103,-0.469,-19.470,-7.629,-0.061
-0.069,-0.144,-0.429,-32.227,0.488,7.690
-0.022,-0.237,-0.392,-39.978,10.559,11.841
0.021,-0.309,-0.315,-45.898,20.081,11.414
0.074,-0.346,-0.237,-47.363,28.809,6.958
0.078,-0.354,-0.176,-43.579,33.875,-0.549
0.036,-0.304,-0.156,-44.128,37.842,-8.362
0.006,-0.189,-0.141,-48.279,41.504,-13.611
-0.034,-0.033,-0.092,-51.941,45.898,-14.587
-0.052,0.059,-0.014,-57.861,51.758,-10.986
-0.073,0.161,0.064,-71.655,56.274,-4.333
-0.026,0.235,0.162,-91.675,58.960,2.014
0.038,0.223,0.230,-115.540,61.584,9.216
0.111,0.050,0.338,-133.179,62.439,18.066
0.170,-0.152,0.505,-142.090,65.857,18.677
0.142,-0.339,0.682,-135.437,67.932,8.606
0.092,-0.321,0.782,-121.277,65.552,-8.667
-0.011,-0.103,0.831,-105.774,60.486,-27.466
-0.138,0.221,0.936,-97.778,57.373,-39.124
-0.221,0.544,1.038,-104.858,54.443,-37.476
-0.302,0.694,1.179,-119.568,47.424,-23.437
-0.263,0.800,1.248,-140.808,38.879,-7.812
-0.206,0.758,1.316,-156.494,31.433,7.263
-0.155,0.615,1.384,-163.025,34.973,15.320
-0.093,0.460,1.620,-158.081,47.852,16.296
-0.112,0.308,1.571,-138.184,57.861,10.193
-0.118,0.071,1.947,-115.601,73.303,2.808
-0.171,0.093,2.132,-100.159,68.054,-12.573
-0.121,0.075,2.368,-95.398,51.392,-17.334
-0.215,0.280,2.422,-107.056,27.710,-18.860
-0.228,0.420,2.490,-117.371,7.141,-10.193
-0.246,0.518,2.466,-112.244,-9.644,4.028
-0.203,0.443,2.487,-108.276,-13.672,16.968
-0.227,0.417,2.411,-108.398,-11.902,16.357
-0.236,0.417,2.420,-94.971,-1.038,12.817
-0.288,0.439,2.448,-78.064,4.700,7.202
-0.338,0.442,2.425,-57.678,9.094,6.836
-0.353,0.414,2.428,-37.964,11.230,9.888
-0.350,0.417,2.424,-25.940,9.888,14.160
-0.341,0.472,2.393,-13.855,6.042,19.592
-0.262,0.481,2.279,1.221,6.104,24.719
-0.221,0.530,2.189,12.024,9.888,28.015
-0.165,0.562,2.146,27.588,14.587,31.372
-0.118,0.553,2.093,46.326,11.353,35.156
-0.091,0.528,1.968,63.599,1.709,37.903
-0.069,0.488,1.802,76.233,-5.676,40.161
-0.029,0.444,1.705,76.050,-8.362,40.955
-0.015,0.386,1.576,64.636,-12.207,40.466
0.052,0.398,1.442,42.725,-16.968,39.185
0.028,0.344,1.323,32.837,-21.912,39.917
0.056,0.312,1.211,39.978,-27.527,43.945
0.082,0.265,1.051,55.420,-34.790,44.495
0.105,0.264,0.896,68.542,-38.757,42.786
0.139,0.271,0.810,81.360,-36.316,40.588
0.149,0.295,0.765,91.858,-32.532,39.673
0.180,0.318,0.754,95.459,-29.419,41.321
0.218,0.298,0.786,94.421,-27.161,44.678
0.251,0.293,0.779,87.769,-28.198,47.058
0.305,0.181,0.785,77.332,-29.724,48.889
0.327,0.103,0.646,71.167,-31.433,47.791
0.358,0.017,0.608,66.040,-28.137,46.875
0.386,-0.045,0.580,57.983,-23.743,41.992
0.410,-0.069,0.561,52.979,-18.982,36.438
0.440,-0.097,0.546,50.781,-15.625,32.715
0.452,-0.104,0.500,52.979,-16.052,30.029
0.486,-0.119,0.459,57.922,-14.282,27.466
0.503,-0.143,0.452,60.608,-9.705,24.658
0.534,-0.165,0.487,57.556,-4.700,20.935
0.543,-0.196,0.555,52.612,-1.648,16.235
0.554,-0.194,0.597,46.753,-1.099,10.925
0.558,-0.182,0.570,37.964,-2.441,5.615
0.573,-0.208,0.515,22.095,-4.028,0.366
0.553,-0.230,0.542,3.052,-2.014,-4.578
0.549,-0.249,0.613,-8.179,1.892,-8.545
0.531,-0.265,0.624,-8.545,-0.305,-12.268
0.511,-0.258,0.607,-2.625,-2.869,-16.602
0.510,-0.239,0.628,1.587,-1.648,-21.667
0.495,-0.202,0.677,3.479,-0.244,-26.733
0.483,-0.185,0.742,5.249,0.916,-30.762
0.468,-0.176,0.795,4.517,0.244,-34.363

0.114,0.311,2.761,-1.038,55.664,-8.057
0.095,0.383,2.724,-3.235,28.442,0.427
0.091,0.432,2.489,-0.366,2.502,7.996
0.089,0.441,2.259,6.592,-8.667,14.404
0.080,0.421,2.065,16.296,-4.883,16.357
0.135,0.358,1.963,34.180,10.315,11.963
0.182,0.302,2.013,60.547,34.302,2.686
0.230,0.284,2.198,91.736,55.969,-8.972
0.285,0.310,2.346,124.817,63.660,-20.996
0.346,0.282,2.312,152.893,54.565,-29.114
0.381,0.282,2.219,166.077,38.940,-35.095
0.399,0.258,2.115,167.419,20.752,-39.246
0.400,0.240,1.879,165.039,-2.136,-42.908
0.385,0.243,1.573,159.851,-23.682,-46.570
0.356,0.290,1.263,151.184,-40.344,-49.561
0.281,0.385,0.939,141.052,-51.392,-50.903
0.211,0.460,0.623,132.751,-56.335,-49.316
0.171,0.511,0.337,128.296,-54.810,-45.654
0.164,0.541,0.175,123.718,-48.340,-40.894
0.163,0.548,0.091,117.188,-41.382,-34.485
0.182,0.505,0.021,110.291,-37.964,-27.100
0.219,0.395,-0.018,104.004,-38.818,-20.142
0.233,0.256,-0.015,99.060,-41.504,-18.677
0.221,0.168,-0.106,101.501,-47.180,-23.376
0.177,0.146,-0.279,108.337,-54.382,-30.457
0.123,0.184,-0.443,106.445,-56.946,-35.706
0.084,0.217,-0.568,97.229,-55.298,-36.499
0.066,0.215,-0.647,85.938,-49.866,-32.410
0.049,0.199,-0.699,73.425,-42.358,-25.024
0.041,0.147,-0.702,63.416,-33.630,-17.273
0.038,0.155,-0.668,55.908,-23.560,-10.132
0.057,0.008,-0.548,47.668,-14.587,-2.502
0.091,-0.067,-0.441,34.790,-10.681,-0.122
0.091,-0.122,-0.371,27.893,-9.705,-0.977
0.088,-0.134,-0.384,23.682,-11.414,-3.723
0.083,-0.144,-0.457,18.433,-12.512,-4.883
0.090,-0.181,-0.511,9.766,-8.240,-4.639
0.103,-0.259,-0.503,0.244,0.183,-3.662
0.109,-0.313,-0.428,-13.000,11.536,-4.517
0.107,-0.308,-0.308,-27.161,20.691,-7.141
0.122,-0.290,-0.196,-37.598,24.170,-9.460
0.132,-0.281,-0.098,-46.692,22.583,-11.230
0.126,-0.258,-0.011,-56.641,19.043,-14.648
0.090,-0.216,0.027,-65.369,14.160,-20.630
0.044,-0.132,-0.003,-71.838,8.911,-26.733
0.015,-0.071,-0.066,-76.599,7.385,-30.518
0.010,-0.047,-0.077,-82.397,13.062,-31.555
0.014,-0.061,0.009,-85.632,23.987,-29.419
0.035,-0.042,0.121,-87.708,33.997,-26.978
0.050,-0.059,0.261,-94.238,41.138,-26.672
0.130,-0.074,0.469,-107.483,48.157,-29.541
0.115,-0.040,0.734,-121.216,52.185,-35.522
0.099,0.114,1.017,-130.493,51.025,-45.959
0.003,0.322,1.131,-129.639,39.429,-54.565
-0.133,0.467,1.114,-125.610,18.982,-56.885
-0.258,0.553,1.078,-132.141,2.808,-50.232
-0.331,0.557,1.034,-148.560,-7.202,-37.170
-0.357,0.477,0.982,-159.729,-13.855,-23.865
-0.351,0.409,0.945,-160.522,-12.878,-15.625
-0.316,0.361,1.003,-156.860,-1.709,-14.648
-0.248,0.270,1.259,-153.015,20.081,-21.606
-0.184,0.172,1.702,-141.968,41.016,-34.668
-0.280,0.242,1.870,-120.911,46.387,-50.720
-0.396,0.263,2.237,-103.638,40.344,-59.509
-0.549,0.339,2.341,-106.750,16.541,-63.171
-0.658,0.339,2.337,-117.249,-10.010,-54.382
-0.723,0.297,2.259,-128.784,-37.781,-43.274
-0.830,0.405,1.981,-136.230,-63.232,-36.255
-0.914,0.686,1.591,-132.446,-71.472,-31.921
-0.982,0.892,1.302,-110.046,-54.077,-25.574
-0.989,0.996,1.364,-82.092,-10.071,-19.958
-0.941,1.022,1.697,-52.185,38.269,-14.160
-0.872,1.002,2.157,-16.724,74.707,-5.127
-0.789,0.905,2.524,11.841,86.670,6.897
-0.720,0.797,2.753,21.362,75.317,21.851
-0.637,0.734,2.835,16.785,49.377,36.255
-0.606,0.659,2.677,9.583,14.526,50.293
-0.512,0.632,2.341,6.348,-15.869,60.913
-0.447,0.554,2.029,7.019,-31.494,68.542
-0.401,0.520,1.803,16.113,-31.372,72.632
-0.323,0.510,1.661,31.921,-21.667,72.327
-0.269,0.436,1.588,51.514,-9.827,72.021
-0.155,0.395,1.569,66.589,1.709,69.763
-0.132,0.354,1.603,77.942,7.141,67.810
-0.128,0.274,1.596,87.769,4.761,67.322
-0.088,0.259,1.577,89.172,-1.099,65.125
-0.079,0.281,1.549,81.116,-9.521,61.523
-0.026,0.326,1.462,70.313,-21.790,58.899
0.056,0.390,1.287,62.561,-33.386,57.861
0.059,0.407,1.078,59.692,-41.077,60.486
0.081,0.406,0.915,61.768,-41.077,63.904
0.112,0.374,0.779,63.904,-34.119,65.430
0.178,0.302,0.713,65.063,-21.790,65.796
0.215,0.326,0.714,71.289,-13.977,63.660
0.296,0.221,0.784,84.534,-7.019,63.232
0.357,0.150,0.814,91.675,-3.662,59.753
0.410,0.105,0.854,90.759,-4.089,54.932
0.438,0.054,0.820,86.670,-9.521,50.537
0.493,0.043,0.724,77.209,-16.235,46.814
0.497,0.048,0.587,65.979,-21.362,43.396
0.498,0.038,0.447,55.847,-22.217,42.175
0.523,0.034,0.391,47.180,-13.855,42.908
0.541,-0.050,0.396,44.678,-4.395,43.396
0.590,-0.146,0.430,42.969,4.517,42.480
0.624,-0.216,0.500,41.687,12.817,38.574
0.659,-0.267,0.610,42.603,19.226,31.799
0.677,-0.286,0.704,44.922,19.714,23.071
0.688,-0.296,0.779,44.189,16.174,13.855
0.671,-0.291,0.790,38.879,8.423,4.761
0.648,-0.257,0.714,31.128,-0.244,-3.052
0.613,-0.204,0.633,24.597,-5.676,-9.399
0.592,-0.187,0.583,18.372,-5.798,-14.526
0.570,-0.149,0.586,13.794,-2.930,-18.982
0.548,-0.134,0.599,14.893,1.831,-22.705
0.527,-0.082,0.647,17.456,6.958,-26.001
0.498,-0.096,0.743,19.897,13.123,-28.564
0.468,-0.129,0.834,18.982,14.404,-31.921
0.431,-0.124,0.904,15.564,11.658,-35.339
0.399,-0.130,0.933,12.085,6.226,-39.490

-0.028,0.384,2.218,-19.348,22.034,18.799
-0.025,0.306,2.152,-11.536,11.108,24.780
-0.047,0.227,2.064,-2.686,6.348,27.100
-0.040,0.196,1.977,12.329,5.920,23.804
-0.044,0.236,1.892,35.034,10.010,18.066
-0.015,0.256,1.791,62.744,17.700,11.658
0.037,0.297,1.742,88.135,29.114,4.028
0.098,0.290,1.829,110.046,46.631,-0.610
0.166,0.264,2.013,129.883,61.401,-4.333
0.221,0.225,2.142,145.264,63.171,-7.751
0.245,0.186,2.177,151.611,51.880,-11.414
0.250,0.187,2.090,149.292,32.349,-15.076
0.231,0.181,1.898,144.470,9.583,-17.395
0.239,0.173,1.657,139.465,-8.911,-18.005
0.235,0.104,1.429,132.324,-20.874,-17.273
0.244,0.024,1.287,124.329,-26.855,-18.005
0.208,-0.022,1.107,122.559,-33.508,-22.156
0.192,0.033,0.937,121.948,-35.645,-26.978
0.143,0.081,0.760,122.437,-36.865,-31.067
0.119,0.158,0.631,118.042,-34.180,-32.410
0.095,0.195,0.552,107.544,-29.846,-30.701
0.098,0.234,0.509,94.727,-27.405,-26.672
0.122,0.194,0.508,85.693,-27.405,-21.729
0.124,0.141,0.455,81.177,-30.029,-19.165
0.117,0.061,0.291,86.304,-37.292,-19.226
0.111,-0.002,0.135,89.600,-39.795,-20.752
0.120,-0.032,0.069,85.571,-36.560,-24.353
0.115,-0.054,0.067,83.618,-29.724,-30.212
0.106,-0.034,0.034,91.858,-25.024,-37.109
0.127,0.042,-0.057,104.187,-23.743,-42.419
0.145,0.084,-0.036,108.887,-18.677,-42.175
0.099,0.139,-0.015,101.624,-17.517,-42.114
0.113,0.159,-0.010,96.069,-17.761,-37.598
0.098,0.160,-0.041,85.510,-23.254,-31.128
0.099,0.145,-0.090,69.092,-29.053,-23.071
0.114,0.111,-0.169,45.166,-33.325,-15.076
0.116,0.044,-0.251,22.644,-34.729,-8.667
0.124,-0.055,-0.299,9.583,-31.921,-4.395
0.149,-0.151,-0.326,5.676,-27.588,-2.869
0.142,-0.242,-0.385,5.066,-22.400,-6.165
0.141,-0.245,-0.439,4.395,-16.052,-11.719
0.122,-0.195,-0.490,5.066,-8.606,-17.700
0.103,-0.073,-0.491,4.517,-1.892,-18.860
0.073,-0.021,-0.520,3.723,3.418,-14.282
0.068,-0.045,-0.466,-4.700,11.047,-6.042
0.071,-0.139,-0.373,-16.968,18.372,0.427
0.086,-0.202,-0.297,-33.020,20.813,2.747
0.076,-0.227,-0.250,-47.729,21.240,0.366
0.068,-0.227,-0.237,-57.068,22.095,-4.089
0.069,-0.199,-0.250,-63.293,23.682,-10.559
0.063,-0.111,-0.208,-70.313,29.541,-17.761
0.054,-0.017,-0.157,-77.698,37.476,-21.729
0.011,0.040,-0.058,-87.402,43.945,-20.325
-0.019,0.052,0.134,-98.022,52.002,-14.038
-0.051,0.012,0.338,-108.459,55.786,-5.798
-0.051,-0.074,0.531,-117.920,53.467,-0.732
-0.008,-0.166,0.739,-127.686,49.133,-0.488
0.037,-0.205,0.921,-135.193,41.199,-7.385
0.060,-0.132,1.036,-135.864,30.396,-21.484
0.044,0.006,1.113,-128.479,19.592,-37.415
-0.060,0.146,1.177,-123.291,10.132,-51.025
-0.230,0.303,1.272,-127.014,4.395,-59.143
-0.409,0.480,1.314,-137.207,-1.099,-58.167
-0.586,0.580,1.477,-151.794,-7.019,-47.546
-0.695,0.505,1.586,-173.828,-12.939,-28.442
-0.665,0.290,1.636,-193.115,-18.555,-11.719
-0.701,0.119,1.547,-205.444,-23.315,-5.615
-0.604,0.062,1.567,-201.843,-15.503,-11.353
-0.578,0.163,1.677,-169.312,0.732,-28.625
-0.572,0.366,1.841,-119.751,24.048,-45.715
-0.597,0.574,2.130,-74.768,47.180,-58.533
-0.609,0.728,2.628,-46.570,64.148,-60.242
-0.699,0.949,3.020,-45.288,54.993,-49.622
-0.766,0.911,3.169,-55.298,22.339,-23.071
-0.798,0.760,2.907,-72.876,-22.766,5.066
-0.806,0.578,2.451,-85.876,-57.739,27.527
-0.792,0.448,2.055,-85.938,-67.871,38.696
-0.759,0.419,1.876,-71.899,-53.528,39.673
-0.678,0.457,1.908,-44.312,-24.658,36.072
-0.595,0.508,2.123,-10.864,3.845,31.311
-0.502,0.525,2.295,18.799,19.104,29.968
-0.431,0.461,2.359,44.067,18.066,32.715
-0.388,0.445,2.341,55.664,7.568,36.682
-0.375,0.424,2.265,51.758,-6.409,42.786
-0.330,0.393,2.087,42.969,-24.353,48.828
-0.316,0.428,1.846,36.316,-41.199,52.185
-0.294,0.493,1.591,33.081,-51.636,54.565
-0.271,0.519,1.383,35.034,-53.223,57.495
-0.216,0.521,1.215,38.147,-48.340,60.730
-0.181,0.499,1.105,44.800,-40.344,64.209
-0.136,0.466,1.035,54.138,-31.311,67.383
-0.102,0.446,0.988,64.575,-23.621,70.862
-0.041,0.383,0.953,74.158,-18.555,74.585
0.025,0.273,0.942,80.383,-16.663,77.332
0.135,0.184,0.923,80.444,-17.090,76.843
0.175,0.057,0.857,78.613,-20.752,75.012
0.223,-0.033,0.733,74.951,-24.719,69.946
0.244,-0.033,0.639,66.223,-24.902,61.829
0.262,-0.015,0.565,57.251,-21.362,52.124
0.308,0.037,0.494,55.969,-15.320,45.288
0.318,0.139,0.434,57.251,-8.423,44.067
0.366,0.160,0.446,59.021,0.671,45.959
0.429,0.038,0.516,61.096,9.644,51.270
0.489,-0.119,0.577,58.960,15.320,53.467
0.543,-0.226,0.655,56.335,17.578,49.927
0.569,-0.277,0.704,53.894,16.541,41.931
0.587,-0.270,0.704,49.927,11.963,32.227
0.571,-0.234,0.676,42.786,7.202,22.827
0.554,-0.217,0.627,35.767,4.028,15.198
0.551,-0.187,0.593,27.893,4.211,9.399
0.509,-0.182,0.552,22.949,4.578,4.944
0.521,-0.183,0.510,21.606,6.714,1.831
0.532,-0.190,0.527,21.851,11.597,-1.038
0.551,-0.197,0.650,20.691,19.592,-4.761
0.562,-0.228,0.806,23.193,22.278,-9.644
0.560,-0.246,0.880,23.621,16.479,-15.747
0.536,-0.240,0.863,19.104,5.371,-21.973
0.496,-0.236,0.788,11.841,-5.066,-27.649
0.443,-0.237,0.712,5.249,-11.169,-32.349

0.306,0.083,2.725,68.726,113.037,-25.269
0.372,0.226,3.003,97.534,113.892,-33.813
0.384,0.341,3.233,104.370,103.088,-34.180
0.379,0.392,3.333,93.750,80.322,-28.320
0.353,0.385,3.198,79.895,49.072,-20.264
0.311,0.357,2.847,70.496,19.348,-14.099
0.303,0.262,2.548,68.359,4.150,-12.573
0.332,0.220,2.446,74.829,4.883,-19.226
0.358,0.245,2.458,96.313,9.949,-32.654
0.375,0.318,2.422,127.991,8.240,-48.035
0.360,0.516,2.284,152.710,-1.404,-61.096
0.312,0.696,2.038,163.147,-17.090,-66.467
0.269,0.812,1.711,160.706,-34.973,-62.439
0.213,0.816,1.337,155.029,-50.598,-52.612
0.170,0.790,0.970,143.799,-61.584,-41.748
0.118,0.709,0.613,130.615,-67.505,-31.677
0.066,0.568,0.302,118.713,-68.115,-23.315
0.064,0.387,0.036,115.601,-64.697,-18.616
0.069,0.251,-0.091,122.192,-56.641,-21.362
0.067,0.162,-0.102,132.751,-45.776,-30.029
0.026,0.182,-0.094,142.517,-37.659,-42.297
-0.014,0.231,-0.262,158.081,-41.199,-54.504
-0.061,0.294,-0.457,166.138,-43.945,-59.570
-0.114,0.355,-0.588,164.001,-37.048,-58.289
-0.163,0.354,-0.708,161.011,-27.832,-51.453
-0.172,0.286,-0.732,153.198,-15.259,-41.626
-0.146,0.235,-0.646,136.169,-2.502,-30.884
-0.119,0.200,-0.541,112.305,4.150,-19.470
-0.076,0.099,-0.463,87.341,5.127,-6.897
-0.037,0.052,-0.411,62.439,1.282,2.319
-0.012,-0.085,-0.357,44.067,-1.648,9.521
0.016,-0.176,-0.370,33.813,-5.981,12.329
0.032,-0.225,-0.406,28.442,-9.338,11.353
0.030,-0.242,-0.456,22.644,-7.935,8.179
0.021,-0.233,-0.492,15.320,-4.517,6.042
0.036,-0.214,-0.472,7.751,3.479,4.944
0.047,-0.205,-0.439,3.174,11.047,6.226
0.078,-0.212,-0.383,-0.244,16.052,9.583
0.114,-0.267,-0.263,-6.531,20.752,13.428
0.149,-0.339,-0.126,-15.320,22.705,15.991
0.168,-0.390,-0.057,-22.949,17.517,16.174
0.160,-0.414,-0.071,-30.884,7.874,13.000
0.143,-0.390,-0.101,-41.687,0.977,7.446
0.118,-0.332,-0.109,-52.124,-1.282,0.610
0.062,-0.232,-0.100,-62.439,-0.793,-5.371
0.004,-0.097,-0.149,-71.838,-0.244,-7.996
-0.059,-0.037,-0.189,-81.665,1.160,-5.249
-0.070,-0.049,-0.114,-93.567,9.888,0.305
-0.052,-0.056,0.056,-103.638,22.461,5.127
-0.012,-0.088,0.271,-108.276,31.738,4.822
0.034,-0.115,0.510,-112.793,40.283,0.671
0.078,-0.108,0.716,-112.732,45.166,-7.202
0.114,-0.083,0.900,-106.812,42.358,-17.029
0.109,0.029,1.082,-107.788,35.156,-25.757
-0.028,0.137,1.214,-116.150,20.874,-28.992
-0.191,0.196,1.213,-130.249,-1.160,-26.306
-0.347,0.191,1.076,-148.804,-26.367,-18.860
-0.451,0.149,0.915,-167.053,-40.588,-11.719
-0.485,0.121,0.785,-179.810,-38.818,-9.521
-0.491,0.136,0.873,-184.570,-18.311,-14.465
-0.427,0.172,1.186,-171.936,15.320,-24.353
-0.371,0.294,1.487,-144.958,40.710,-36.926
-0.356,0.386,1.775,-115.417,54.443,-46.570
-0.434,0.549,2.166,-96.558,60.730,-49.500
-0.458,0.629,2.338,-90.149,47.180,-43.762
-0.509,0.495,2.670,-93.445,24.536,-29.907
-0.618,0.440,2.666,-109.436,-5.249,-17.395
-0.667,0.262,2.556,-120.605,-32.471,-3.235
-0.743,0.181,2.270,-126.282,-49.316,3.540
-0.746,0.288,2.131,-121.033,-44.189,7.690
-0.703,0.338,2.071,-102.295,-24.353,6.775
-0.641,0.447,2.278,-76.965,5.615,1.953
-0.589,0.599,2.514,-46.204,30.273,-1.038
-0.523,0.660,2.680,-10.193,38.574,0.916
-0.475,0.653,2.731,18.555,34.363,8.240
-0.431,0.589,2.685,32.471,21.057,19.165
-0.398,0.451,2.522,37.109,1.099,30.823
-0.359,0.342,2.294,36.926,-17.639,39.246
-0.321,0.279,2.032,38.452,-32.043,42.175
-0.277,0.259,1.814,43.091,-38.452,40.527
-0.233,0.260,1.646,44.861,-37.842,35.339
-0.194,0.274,1.534,47.058,-34.119,28.625
-0.157,0.322,1.404,53.467,-30.823,22.400
-0.063,0.477,1.254,65.247,-29.968,18.921
-0.072,0.490,1.139,80.933,-29.968,27.344
-0.055,0.484,1.057,87.097,-28.259,38.513
0.000,0.426,1.025,85.999,-27.649,48.706
0.039,0.304,1.001,80.078,-30.518,57.678
0.110,0.183,0.914,69.885,-36.560,63.232
0.144,0.105,0.793,57.861,-42.847,63.599
0.170,0.018,0.685,53.711,-45.898,60.913
0.186,-0.025,0.565,49.377,-44.739,54.810
0.171,-0.041,0.488,43.335,-40.466,47.363
0.187,-0.028,0.442,37.598,-31.372,39.368
0.204,-0.000,0.426,34.119,-21.729,32.898
0.271,0.062,0.455,34.546,-11.047,27.710
0.332,0.132,0.528,41.687,-1.343,26.794
0.340,0.111,0.604,51.819,5.981,31.555
0.374,0.027,0.650,56.885,9.094,36.987
0.404,-0.059,0.662,54.443,9.277,39.429
0.431,-0.135,0.669,48.950,8.667,39.185
0.453,-0.191,0.655,42.358,7.751,36.682
0.471,-0.217,0.656,31.738,5.676,31.616
0.493,-0.263,0.654,24.963,4.639,24.597
0.502,-0.258,0.651,21.362,4.211,15.442
0.495,-0.215,0.665,18.311,6.348,6.714
0.501,-0.192,0.697,18.677,8.057,0.488
0.512,-0.172,0.759,18.555,9.094,-3.967
0.501,-0.142,0.835,18.494,9.766,-7.812
0.482,-0.152,0.838,21.118,5.981,-10.742
0.474,-0.166,0.819,20.752,0.977,-12.939
0.453,-0.171,0.815,14.343,-1.587,-15.564
0.440,-0.163,0.810,8.118,-3.052,-19.287
0.426,-0.144,0.788,6.348,-4.456,-23.560
0.381,-0.120,0.761,4.028,-4.272,-28.625
0.375,-0.061,0.754,0.732,-2.380,-34.607
0.302,-0.046,0.780,0.854,1.526,-36.560
0.250,-0.015,0.826,1.404,5.615,-37.170
0.230,-0.023,0.825,4.150,7.507,-37.903

0.169,0.292,2.600,13.428,49.316,0.732
0.171,0.204,2.637,-2.197,25.452,14.099
0.190,0.116,2.463,-15.503,0.549,23.254
0.186,0.023,2.210,-18.066,-15.808,25.635
0.177,0.006,1.974,-9.216,-18.738,18.677
0.186,0.059,1.858,10.986,-7.507,5.798
0.212,0.198,1.914,40.161,14.404,-9.949
0.254,0.327,2.075,76.721,39.429,-24.902
0.320,0.424,2.216,115.540,56.274,-36.133
0.368,0.408,2.304,144.287,63.599,-41.992
0.404,0.342,2.314,158.020,60.547,-45.715
0.402,0.293,2.197,162.842,47.485,-49.622
0.397,0.283,1.976,162.292,29.358,-53.345
0.380,0.210,1.723,157.104,12.573,-57.007
0.371,0.253,1.518,148.010,-0.122,-61.035
0.328,0.272,1.279,143.433,-13.184,-64.331
0.285,0.328,1.039,141.418,-24.231,-66.589
0.241,0.420,0.774,140.747,-32.166,-66.895
0.177,0.516,0.505,141.296,-36.316,-64.514
0.152,0.531,0.281,144.409,-35.095,-57.678
0.136,0.470,0.100,143.799,-30.151,-48.035
0.129,0.397,0.024,133.118,-23.865,-39.063
0.152,0.276,0.027,116.821,-20.996,-32.043
0.179,0.143,0.093,100.891,-23.193,-30.029
0.156,0.050,0.078,98.389,-31.494,-33.997
0.120,0.059,-0.105,107.300,-45.654,-40.588
0.085,0.104,-0.341,111.084,-55.847,-45.227
0.029,0.138,-0.491,103.271,-58.716,-45.166
0.021,0.154,-0.621,93.384,-55.603,-42.358
0.021,0.201,-0.696,84.595,-48.340,-37.720
0.007,0.124,-0.721,80.139,-38.086,-29.480
0.032,0.076,-0.673,70.496,-27.649,-22.583
0.053,-0.004,-0.556,55.237,-18.860,-15.686
0.089,-0.088,-0.437,38.757,-14.282,-9.827
0.116,-0.187,-0.330,22.095,-15.869,-7.751
0.119,-0.223,-0.283,8.545,-20.264,-9.827
0.102,-0.182,-0.346,3.113,-27.893,-13.367
0.090,-0.156,-0.456,1.709,-34.058,-14.526
0.097,-0.206,-0.517,-3.052,-32.776,-11.902
0.093,-0.252,-0.503,-12.268,-24.841,-8.972
0.090,-0.231,-0.451,-22.217,-14.832,-8.911
0.047,-0.170,-0.392,-31.738,-6.775,-11.169
0.013,-0.104,-0.320,-42.358,-1.099,-12.512
-0.008,-0.051,-0.229,-52.734,3.845,-11.902
-0.017,-0.017,-0.182,-63.171,5.493,-10.925
-0.020,-0.012,-0.198,-73.669,5.737,-10.315
0.010,-0.037,-0.224,-80.811,8.911,-8.606
0.033,-0.054,-0.208,-84.106,14.282,-6.653
0.014,-0.124,-0.136,-85.388,21.973,-6.836
-0.024,-0.184,-0.053,-86.853,29.358,-9.277
-0.058,-0.151,0.021,-90.454,36.133,-14.587
-0.098,-0.114,0.157,-95.825,44.861,-19.226
-0.124,-0.073,0.379,-105.103,56.580,-23.132
-0.111,-0.025,0.652,-113.464,66.956,-27.954
-0.077,0.055,0.930,-119.873,68.359,-32.043
-0.031,0.141,1.221,-125.305,61.768,-36.499
-0.016,0.298,1.405,-135.742,46.692,-39.307
-0.078,0.435,1.474,-145.996,23.743,-38.574
-0.216,0.475,1.411,-151.367,1.953,-32.654
-0.339,0.389,1.370,-155.640,-7.690,-24.536
-0.446,0.247,1.420,-161.438,-6.470,-18.799
-0.548,0.139,1.519,-165.161,0.000,-17.456
-0.570,0.086,1.703,-164.185,6.042,-19.104
-0.533,0.111,1.934,-158.569,9.521,-22.827
-0.595,0.158,1.900,-150.146,6.836,-27.771
-0.547,0.339,2.111,-140.869,14.526,-33.630
-0.584,0.509,2.256,-125.061,15.808,-39.246
-0.599,0.704,2.450,-102.600,21.912,-40.344
-0.684,0.921,2.539,-81.055,23.437,-35.950
-0.707,1.064,2.690,-60.547,25.208,-19.592
-0.700,0.914,2.778,-46.021,21.240,2.441
-0.660,0.686,2.828,-44.983,9.705,20.874
-0.627,0.584,2.775,-51.880,-6.348,33.569
-0.609,0.573,2.589,-51.392,-25.330,41.138
-0.592,0.553,2.327,-38.513,-36.804,47.119
-0.541,0.543,2.168,-23.254,-35.767,52.124
-0.503,0.499,2.097,-7.263,-26.978,56.274
-0.441,0.415,1.991,9.949,-20.691,59.448
-0.396,0.313,1.885,26.306,-15.869,61.523
-0.355,0.235,1.819,38.391,-11.169,61.279
-0.326,0.199,1.800,48.401,-8.972,59.021
-0.294,0.229,1.780,51.758,-10.620,55.359
-0.259,0.271,1.716,53.467,-16.785,51.758
-0.227,0.330,1.581,53.833,-24.902,48.706
-0.216,0.401,1.418,48.889,-30.396,45.776
-0.192,0.466,1.253,43.518,-31.494,44.373
-0.168,0.539,1.115,41.016,-28.748,44.983
-0.141,0.588,0.999,45.715,-23.254,48.401
-0.066,0.630,0.947,59.509,-17.883,54.138
-0.024,0.595,0.956,71.716,-11.902,63.416
0.094,0.408,0.997,74.890,-9.521,72.937
0.209,0.293,0.931,73.669,-11.841,79.163
0.279,0.048,0.906,76.233,-14.343,86.731
0.359,-0.119,0.822,70.984,-20.264,82.275
0.364,-0.193,0.746,66.223,-23.132,72.388
0.384,-0.142,0.650,64.148,-23.926,59.692
0.382,-0.067,0.528,61.951,-22.156,48.401
0.393,-0.021,0.448,59.814,-15.381,42.053
0.431,-0.021,0.410,57.556,-7.019,39.734
0.481,-0.026,0.447,53.955,3.845,39.795
0.536,-0.058,0.528,51.636,14.282,39.978
0.610,-0.128,0.650,50.293,20.630,40.344
0.674,-0.196,0.798,44.189,22.827,39.001
0.698,-0.255,0.901,37.292,18.982,35.889
0.718,-0.301,0.867,32.166,6.836,31.372
0.725,-0.336,0.745,27.771,-5.798,25.696
0.708,-0.331,0.647,19.714,-11.536,18.860
0.684,-0.340,0.601,11.536,-11.230,11.902
0.649,-0.327,0.578,6.287,-10.071,4.639
0.616,-0.332,0.563,6.958,-7.080,-1.587
0.602,-0.319,0.586,12.817,-3.418,-9.338
0.567,-0.266,0.616,19.348,-1.282,-18.494
0.551,-0.179,0.673,21.606,1.343,-26.245
0.492,-0.150,0.734,21.240,2.930,-29.541
0.483,-0.116,0.759,17.883,1.038,-32.349
0.457,-0.108,0.754,13.367,-2.197,-35.156
0.392,-0.141,0.742,7.019,-4.333,-36.011
0.331,-0.182,0.724,-1.587,-4.028,-38.940
0.275,-0.217,0.710,-5.859,-2.075,-44.067

0.200,0.204,2.230,66.772,50.171,8.728
0.262,0.179,2.239,84.595,50.964,8.972
0.330,0.129,2.233,95.642,50.476,8.850
0.384,0.080,2.273,103.943,50.354,6.836
0.433,0.044,2.319,112.549,46.204,2.625
0.477,0.008,2.300,119.385,34.912,-2.197
0.459,-0.016,2.190,122.375,16.174,-7.507
0.474,-0.005,2.015,119.202,-2.319,-12.329
0.458,-0.040,1.779,114.319,-19.226,-15.442
0.461,-0.116,1.552,110.535,-30.701,-17.273
0.439,-0.160,1.375,106.689,-35.645,-19.653
0.423,-0.147,1.175,106.628,-38.391,-25.391
0.376,-0.109,0.977,110.168,-38.757,-30.945
0.338,-0.068,0.855,112.610,-33.569,-36.743
0.312,-0.004,0.811,112.000,-25.269,-42.786
0.299,0.050,0.771,107.605,-19.287,-46.875
0.290,0.131,0.724,98.877,-16.174,-47.913
0.255,0.194,0.670,85.632,-14.893,-45.349
0.257,0.194,0.563,74.768,-15.442,-39.795
0.286,0.081,0.466,69.275,-17.334,-32.837
0.351,-0.092,0.448,64.270,-17.944,-32.104
0.372,-0.207,0.499,68.298,-18.616,-41.992
0.363,-0.172,0.406,88.623,-24.902,-57.434
0.339,-0.032,0.214,112.427,-36.987,-72.876
0.306,0.157,0.095,122.375,-43.152,-82.397
0.277,0.364,-0.014,120.667,-45.776,-83.374
0.192,0.450,-0.074,110.352,-48.767,-77.759
0.149,0.519,-0.167,90.149,-52.795,-68.909
0.084,0.501,-0.257,70.801,-53.955,-54.199
0.059,0.435,-0.367,52.551,-54.565,-41.443
0.061,0.342,-0.452,35.828,-50.537,-27.405
0.082,0.183,-0.525,24.536,-42.175,-16.846
0.116,0.006,-0.563,16.174,-32.715,-11.902
0.144,-0.118,-0.532,11.414,-18.494,-14.038
0.150,-0.142,-0.486,14.832,-5.920,-21.057
0.127,-0.055,-0.463,18.188,1.465,-30.334
0.081,0.124,-0.459,16.479,6.531,-35.156
0.053,0.221,-0.472,10.193,10.681,-31.494
0.027,0.183,-0.412,-0.122,15.076,-20.447
0.055,0.113,-0.338,-12.329,20.203,-8.850
0.040,0.084,-0.283,-27.710,19.592,-1.709
0.049,0.025,-0.254,-40.527,17.334,2.808
0.043,0.014,-0.257,-49.072,15.930,3.296
0.044,0.051,-0.255,-54.260,17.517,0.183
-0.037,0.046,-0.210,-56.091,24.902,-2.014
-0.041,0.107,-0.133,-58.350,34.180,-6.653
-0.072,0.130,-0.002,-63.599,43.091,-7.935
-0.083,0.113,0.198,-73.181,51.514,-5.310
-0.090,0.054,0.391,-85.449,52.795,0.122
-0.058,0.002,0.491,-98.877,46.326,5.676
-0.035,-0.108,0.536,-109.680,37.292,8.484
-0.027,-0.168,0.656,-119.202,33.875,4.456
-0.071,-0.165,0.825,-122.375,33.691,-6.348
-0.138,-0.071,0.990,-119.080,31.433,-18.005
-0.219,-0.027,1.149,-109.802,26.672,-26.184
-0.331,0.025,1.325,-109.192,21.362,-28.259
-0.380,0.049,1.541,-117.371,16.846,-27.832
-0.432,-0.022,1.776,-128.601,10.803,-25.269
-0.473,-0.070,1.902,-136.963,1.648,-22.339
-0.478,-0.112,2.016,-136.292,-9.766,-21.423
-0.524,-0.059,1.908,-131.287,-23.193,-24.353
-0.582,-0.072,1.938,-131.531,-27.527,-27.344
-0.660,0.036,1.905,-133.911,-29.480,-33.936
-0.734,0.047,1.930,-128.235,-27.588,-35.645
-0.791,0.110,2.140,-122.375,-22.034,-35.156
-0.890,0.173,2.319,-113.220,-23.376,-31.494
-0.938,0.363,2.432,-103.394,-29.419,-22.644
-0.985,0.489,2.344,-94.543,-39.368,-8.850
-0.995,0.567,2.168,-86.182,-45.532,5.005
-0.988,0.645,1.961,-71.167,-45.471,18.372
-0.961,0.658,1.825,-50.781,-34.180,32.410
-0.892,0.590,1.763,-29.602,-14.465,46.143
-0.782,0.487,1.819,-8.057,9.888,57.190
-0.652,0.353,2.038,12.939,35.217,63.904
-0.533,0.257,2.297,30.823,50.110,66.467
-0.415,0.243,2.473,44.922,47.119,65.857
-0.355,0.265,2.500,48.645,29.541,66.284
-0.284,0.281,2.328,42.603,5.188,67.078
-0.210,0.316,2.075,32.715,-17.151,69.153
-0.128,0.320,1.795,27.283,-30.945,73.120
-0.062,0.247,1.518,30.884,-36.926,78.796
0.014,0.132,1.327,39.917,-33.386,83.191
0.085,0.046,1.239,50.537,-24.414,83.130
0.145,0.010,1.205,61.951,-15.869,79.346
0.199,0.027,1.152,70.007,-11.536,74.280
0.237,0.047,1.086,73.669,-11.292,70.068
0.290,0.072,1.029,68.726,-12.329,68.604
0.327,0.071,0.955,56.580,-14.954,68.176
0.381,-0.019,0.888,39.063,-16.113,66.833
0.433,-0.060,0.821,23.621,-15.930,62.317
0.460,-0.112,0.758,17.639,-15.015,57.129
0.478,-0.123,0.642,15.869,-16.052,49.500
0.492,-0.111,0.565,17.822,-11.719,43.274
0.501,-0.124,0.542,22.034,-5.249,37.415
0.523,-0.119,0.543,29.968,0.671,31.494
0.541,-0.110,0.584,40.344,8.423,25.269
0.555,-0.097,0.657,48.462,15.442,19.592
0.566,-0.106,0.708,50.171,18.738,15.320
0.578,-0.114,0.724,46.631,18.127,11.353
0.592,-0.126,0.744,39.246,16.296,7.141
0.599,-0.150,0.757,32.349,14.221,2.441
0.602,-0.169,0.728,28.687,9.766,-2.075
0.599,-0.212,0.699,27.405,5.737,-7.935
0.593,-0.234,0.697,25.391,3.662,-15.442
0.572,-0.230,0.680,24.048,2.136,-23.804
0.547,-0.183,0.656,23.865,0.671,-31.189
0.510,-0.125,0.640,23.132,0.732,-37.720
0.490,-0.066,0.629,23.315,1.465,-42.175
0.456,-0.007,0.629,22.949,2.197,-44.495
0.425,0.004,0.642,19.348,3.723,-44.739
0.386,0.023,0.681,10.498,5.859,-44.250
0.338,-0.004,0.725,4.089,6.226,-44.067
0.301,-0.054,0.746,1.282,5.005,-44.312
0.269,-0.123,0.733,1.221,3.662,-46.509
0.235,-0.176,0.735,-0.244,4.639,-51.147
0.228,-0.230,0.777,0.488,8.972,-57.434
0.211,-0.256,0.815,5.493,11.841,-64.941
0.188,-0.218,0.891,5.798,13.184,-72.693
0.152,-0.139,0.906,6.287,12.573,-79.834
