aX,aY,aZ,gX,gY,gZ
0.726,0.245,1.789,-66.589,41.321,5.432
0.804,0.161,2.030,-67.261,43.335,-2.747
0.842,0.089,2.169,-60.242,30.762,-15.381
0.797,0.093,2.145,-56.519,5.371,-31.982
0.654,0.181,1.968,-58.472,-20.996,-45.349
0.506,0.310,1.730,-62.561,-39.795,-52.368
0.374,0.401,1.533,-63.843,-44.373,-53.040
0.275,0.417,1.451,-58.960,-35.522,-50.903
0.229,0.373,1.492,-46.387,-17.578,-50.476
0.238,0.319,1.605,-29.846,1.953,-54.871
0.248,0.311,1.759,-15.503,17.883,-64.392
0.223,0.332,1.949,-3.601,26.978,-75.378
0.169,0.323,2.132,6.287,26.489,-84.534
0.064,0.369,2.298,9.399,16.724,-92.285
-0.058,0.487,2.392,5.859,-0.427,-97.229
-0.218,0.634,2.340,0.854,-23.804,-98.267
-0.364,0.789,2.167,0.000,-47.852,-95.398
-0.495,0.925,1.947,4.272,-63.416,-89.355
-0.595,1.036,1.749,11.536,-67.871,-82.825
-0.674,1.103,1.604,20.996,-64.270,-74.585
-0.727,1.101,1.517,33.081,-57.190,-64.636
-0.754,1.067,1.455,44.678,-50.720,-54.626
-0.786,1.002,1.393,53.162,-47.485,-44.556
-0.837,0.926,1.339,56.580,-47.119,-33.997
-0.863,0.828,1.256,55.725,-48.950,-22.949
-0.888,0.707,1.147,54.199,-52.490,-13.062
-0.889,0.631,1.020,55.542,-54.016,-7.751
-0.864,0.594,0.860,60.669,-54.504,-6.042
-0.847,0.568,0.663,71.045,-52.795,-5.310
-0.854,0.531,0.469,86.487,-46.204,-6.287
-0.876,0.497,0.322,105.225,-34.119,-9.094
-0.891,0.534,0.241,125.061,-18.738,-13.855
-0.880,0.616,0.272,145.630,-3.113,-16.052
-0.834,0.676,0.393,154.968,9.216,-10.437
-0.774,0.712,0.490,145.081,10.620,3.357
-0.697,0.696,0.494,122.314,1.404,24.048
-0.606,0.641,0.430,92.590,-11.597,47.424
-0.528,0.562,0.354,63.843,-23.804,69.397
-0.433,0.366,0.273,45.654,-31.799,86.487
-0.365,0.280,0.192,37.109,-36.621,94.727
-0.265,0.166,0.131,36.194,-35.950,98.633
-0.181,0.110,0.103,36.804,-30.457,97.046
-0.102,0.070,0.101,34.668,-24.536,93.445
-0.011,0.035,0.124,29.175,-18.372,90.210
0.090,0.045,0.153,22.400,-12.878,86.792
0.180,0.061,0.219,15.015,-7.446,84.595
0.290,0.069,0.284,9.705,-3.235,83.435
0.393,0.077,0.365,7.996,-0.061,82.031
0.494,0.052,0.438,5.920,2.136,80.566
0.577,-0.013,0.476,-0.610,1.770,78.552
0.642,-0.041,0.500,-13.245,0.122,74.402
0.712,-0.064,0.530,-27.527,0.488,70.435
0.792,-0.097,0.570,-41.016,3.662,65.979
0.852,-0.128,0.607,-49.316,8.850,59.875
0.904,-0.151,0.667,-51.208,15.747,51.697
0.954,-0.151,0.742,-48.889,22.949,41.687
0.978,-0.120,0.828,-45.349,28.076,30.212
0.984,-0.066,0.930,-38.696,31.189,18.738
0.973,-0.071,1.006,-26.917,32.288,8.606
0.946,-0.134,1.036,-16.663,30.090,0.977
0.918,-0.193,1.009,-13.245,25.452,-4.395
0.873,-0.220,0.993,-16.174,22.034,-11.047
0.838,-0.204,1.007,-22.644,22.095,-18.372
0.818,-0.178,1.038,-28.870,23.499,-24.658
0.789,-0.188,1.093,-33.569,24.780,-30.457
0.775,-0.201,1.181,-42.358,25.818,-37.537
0.703,-0.190,1.316,-50.354,26.184,-47.424
0.606,-0.150,1.494,-47.546,26.184,-61.340
0.453,-0.134,1.668,-29.785,24.414,-76.660
0.325,-0.068,1.766,-7.874,18.005,-90.759
0.193,0.099,1.760,8.484,6.592,-101.868
0.067,0.289,1.678,16.785,-4.700,-106.018
-0.027,0.398,1.619,17.517,-11.658,-101.868
-0.120,0.438,1.596,13.916,-14.343,-95.581
-0.142,0.442,1.683,10.315,-16.052,-90.332
-0.268,0.464,1.700,7.263,-25.330,-87.830
-0.377,0.512,1.669,5.798,-35.034,-85.876
-0.514,0.558,1.644,7.874,-39.795,-82.703
-0.622,0.575,1.646,14.282,-39.124,-78.491
-0.694,0.563,1.661,25.452,-36.560,-73.364
-0.740,0.536,1.653,36.499,-36.072,-67.261
-0.759,0.511,1.644,42.480,-36.255,-60.730
-0.778,0.488,1.628,44.312,-37.415,-53.650
-0.810,0.466,1.559,43.884,-41.565,-45.593
-0.842,0.424,1.422,42.542,-48.035,-36.438
-0.879,0.385,1.239,40.344,-53.589,-28.320
-0.928,0.373,1.062,37.231,-53.894,-22.766
-0.937,0.398,0.940,37.354,-48.035,-18.982
-0.909,0.413,0.946,44.128,-36.682,-14.954
-0.870,0.388,1.031,56.274,-23.804,-11.292
-0.811,0.321,1.081,69.946,-18.066,-7.080
-0.770,0.303,1.049,79.773,-20.752,-2.747
-0.748,0.345,0.945,82.520,-27.649,1.099
-0.753,0.387,0.810,79.163,-34.424,7.935
-0.743,0.395,0.673,72.815,-38.086,18.127
-0.724,0.358,0.554,63.843,-38.086,29.785
-0.693,0.316,0.452,54.382,-35.522,40.894
-0.648,0.268,0.372,45.227,-30.945,50.171
-0.606,0.229,0.322,36.316,-24.475,57.922
-0.549,0.174,0.313,28.076,-16.418,64.453
-0.492,0.135,0.360,19.775,-8.484,68.420
-0.436,0.095,0.432,15.198,-2.014,69.702
-0.386,0.068,0.472,17.578,1.892,69.641
-0.339,0.084,0.445,21.606,2.197,68.115
-0.307,0.099,0.387,23.926,1.465,68.176
-0.250,0.102,0.310,20.386,2.502,70.129
-0.211,0.076,0.235,13.550,5.920,73.730
-0.150,0.010,0.249,6.104,14.893,76.172
-0.079,-0.060,0.335,0.610,27.710,76.050
-0.000,-0.135,0.447,-0.427,38.025,72.693
0.074,-0.175,0.567,0.854,44.495,66.284
0.127,-0.157,0.692,3.601,46.936,56.824
0.168,-0.117,0.780,8.423,44.739,48.096
0.208,-0.066,0.822,12.207,37.842,41.870
0.235,-0.024,0.838,12.695,29.602,38.086
0.256,0.011,0.822,9.644,22.644,37.598
0.268,0.025,0.809,4.578,18.005,39.612
0.284,0.027,0.774,-3.479,14.832,42.175
0.285,-0.006,0.773,-11.719,13.428,45.349

0.340,0.615,1.637,-81.177,30.518,4.395
0.434,0.558,1.693,-106.445,21.851,13.916
0.441,0.443,1.835,-126.160,21.729,16.296
0.428,0.389,1.963,-132.385,17.944,10.681
0.459,0.301,2.048,-121.460,4.639,-0.244
0.352,0.322,2.012,-98.755,-13.733,-16.785
0.374,0.452,1.904,-75.745,-24.780,-30.518
0.330,0.574,1.766,-55.542,-30.518,-39.429
0.333,0.670,1.694,-42.786,-27.405,-42.664
0.343,0.711,1.675,-36.682,-20.081,-41.504
0.352,0.705,1.744,-36.072,-12.756,-37.720
0.379,0.633,1.873,-38.696,-8.179,-34.790
0.359,0.570,1.952,-44.739,-10.986,-34.607
0.351,0.522,1.913,-47.729,-18.555,-38.696
0.343,0.506,1.846,-37.903,-22.461,-49.011
0.299,0.508,1.855,-17.090,-17.456,-61.890
0.207,0.517,1.942,5.493,-9.460,-75.012
0.105,0.534,2.019,26.245,-5.432,-85.388
-0.033,0.570,2.086,43.945,-6.287,-91.248
-0.146,0.632,2.154,55.176,-9.766,-92.834
-0.256,0.741,2.149,61.523,-19.897,-92.957
-0.360,0.929,2.067,64.270,-34.180,-92.285
-0.466,1.100,1.971,69.092,-45.837,-89.844
-0.543,1.178,1.858,78.430,-54.565,-84.717
-0.596,1.203,1.686,86.670,-61.951,-78.308
-0.671,1.192,1.493,89.905,-67.810,-70.862
-0.732,1.187,1.306,92.468,-70.129,-61.340
-0.807,1.156,1.132,94.910,-70.129,-48.828
-0.867,1.099,0.988,94.604,-68.909,-33.508
-0.914,0.974,0.877,93.506,-67.139,-17.212
-1.007,0.901,0.690,91.309,-66.956,-3.784
-1.019,0.779,0.479,88.440,-67.139,9.949
-1.039,0.666,0.251,81.970,-66.528,20.142
-1.002,0.570,0.056,74.890,-60.669,27.588
-0.977,0.514,-0.060,74.585,-47.546,29.297
-0.949,0.469,-0.115,83.130,-29.053,28.809
-0.886,0.416,-0.115,97.839,-8.850,29.297
-0.794,0.402,-0.053,113.464,11.230,29.053
-0.710,0.402,0.049,120.605,26.306,32.104
-0.633,0.424,0.140,110.779,29.480,40.161
-0.563,0.427,0.135,91.492,21.790,52.917
-0.481,0.364,0.052,70.679,10.681,69.092
-0.403,0.254,-0.043,48.950,2.380,83.862
-0.295,0.119,-0.074,29.907,-0.427,94.360
-0.161,-0.005,-0.038,15.076,1.892,99.670
-0.041,-0.093,-0.003,3.418,4.456,98.694
0.072,-0.123,0.026,-2.502,7.507,92.957
0.185,-0.076,0.093,-4.639,13.062,83.008
0.310,-0.005,0.199,-3.418,20.813,72.998
0.427,0.072,0.346,-1.709,26.978,65.308
0.552,0.107,0.530,-4.944,30.518,61.401
0.676,0.109,0.674,-14.832,28.748,61.218
0.770,0.087,0.753,-29.053,22.278,62.012
0.847,0.066,0.770,-46.509,14.893,60.852
0.887,0.037,0.750,-60.059,10.437,56.458
0.946,0.005,0.740,-64.453,11.780,47.607
0.997,-0.010,0.779,-60.242,19.470,33.142
1.025,0.020,0.900,-48.950,31.433,14.771
1.055,0.057,1.043,-31.799,43.518,-3.662
1.056,0.067,1.167,-13.916,51.758,-18.005
1.051,0.069,1.268,-2.197,55.176,-28.381
1.000,0.079,1.357,0.732,55.298,-35.828
0.907,0.064,1.488,-3.418,52.979,-39.368
0.836,0.004,1.635,-12.573,45.715,-39.368
0.774,-0.080,1.731,-24.963,30.823,-39.185
0.711,-0.173,1.731,-36.926,11.047,-41.321
0.613,-0.208,1.665,-43.579,-5.798,-49.194
0.490,-0.190,1.627,-37.659,-13.794,-62.683
0.366,-0.140,1.694,-21.362,-11.902,-80.444
0.208,-0.013,1.780,-1.831,-7.080,-99.365
0.016,0.147,1.917,17.883,-4.089,-114.685
-0.117,0.370,2.079,32.410,-4.517,-124.695
-0.319,0.635,2.078,40.771,-16.235,-128.479
-0.477,0.872,1.952,39.246,-35.706,-124.451
-0.615,0.997,1.729,34.668,-54.749,-111.572
-0.705,1.012,1.537,31.311,-65.125,-94.177
-0.784,0.921,1.453,30.029,-67.810,-76.050
-0.848,0.738,1.416,28.931,-67.566,-58.777
-0.939,0.561,1.348,28.198,-69.092,-46.448
-1.034,0.473,1.251,30.273,-71.106,-40.527
-1.089,0.464,1.165,36.743,-70.496,-37.964
-1.129,0.561,1.050,48.889,-68.542,-37.415
-1.149,0.703,0.893,64.453,-66.345,-34.607
-1.139,0.807,0.727,76.111,-62.744,-25.940
-1.104,0.857,0.597,81.177,-56.458,-11.536
-1.043,0.837,0.496,79.895,-48.584,6.287
-0.984,0.726,0.452,72.327,-40.283,26.062
-0.905,0.571,0.446,60.913,-31.982,43.823
-0.822,0.448,0.421,50.537,-26.367,56.824
-0.737,0.347,0.360,42.419,-23.254,65.796
-0.662,0.261,0.312,35.278,-19.409,71.350
-0.599,0.201,0.295,31.311,-13.123,73.364
-0.531,0.177,0.276,32.471,-7.019,72.693
-0.456,0.177,0.243,35.706,-3.052,70.740
-0.365,0.158,0.239,37.415,1.282,69.946
-0.237,0.149,0.244,36.743,6.714,70.435
-0.131,0.140,0.256,36.621,13.367,71.960
-0.037,0.116,0.282,33.691,21.545,73.608
0.035,0.073,0.348,27.222,30.579,75.439
0.112,0.010,0.439,19.287,38.330,76.782
0.181,-0.044,0.513,11.108,42.847,76.782
0.260,-0.102,0.575,3.845,44.800,75.745
0.351,-0.145,0.632,-0.793,46.326,72.266
0.420,-0.167,0.719,0.366,48.767,65.430
0.495,-0.168,0.810,6.897,52.124,55.603
0.520,-0.168,0.930,16.663,54.626,45.471
0.553,-0.159,1.049,24.780,56.580,36.743
0.555,-0.158,1.149,30.029,53.650,29.541
0.533,-0.108,1.221,32.349,46.509,23.926
0.522,-0.091,1.240,27.832,34.729,21.240
0.469,-0.076,1.214,10.193,18.127,21.973
0.410,-0.046,1.123,-4.028,1.831,23.132
0.361,-0.050,1.030,-9.888,-8.911,24.170
0.317,-0.077,0.965,-12.756,-13.672,24.414
0.269,-0.102,0.914,-14.893,-15.259,23.804
0.224,-0.114,0.874,-14.587,-14.893,22.156
0.183,-0.116,0.866,-11.047,-11.047,19.348
0.166,-0.111,0.905,-5.432,-5.554,15.442
0.147,-0.109,0.970,0.061,-1.099,11.108

0.575,0.769,1.605,-99.548,56.396,-21.790
0.670,0.802,1.784,-106.812,54.626,-18.433
0.797,0.826,1.825,-121.887,44.800,-14.221
0.880,0.863,1.915,-139.038,42.908,-15.076
0.918,0.859,2.221,-142.761,51.697,-23.132
0.843,0.811,2.590,-119.873,51.514,-35.889
0.766,0.785,2.686,-83.557,29.175,-49.744
0.648,0.797,2.574,-54.749,4.089,-61.523
0.536,0.841,2.464,-38.025,-10.315,-69.824
0.401,0.935,2.382,-32.715,-16.357,-74.890
0.317,1.010,2.274,-24.841,-20.508,-76.904
0.291,1.005,2.175,-7.080,-20.630,-78.125
0.233,0.947,2.199,10.315,-15.442,-81.177
0.156,0.876,2.255,21.362,-12.878,-86.121
0.010,0.807,2.358,29.602,-15.198,-90.820
-0.123,0.762,2.506,34.912,-20.630,-94.543
-0.265,0.816,2.580,40.344,-34.668,-97.107
-0.400,0.917,2.482,48.401,-57.861,-97.351
-0.517,1.039,2.215,59.753,-82.764,-94.910
-0.615,1.187,1.882,69.946,-99.426,-90.576
-0.724,1.317,1.553,79.834,-105.286,-83.252
-0.802,1.368,1.307,91.248,-101.135,-72.754
-0.831,1.326,1.156,101.013,-88.989,-59.998
-0.840,1.184,1.060,108.093,-76.782,-46.204
-0.849,0.975,0.995,111.633,-68.359,-32.654
-0.885,0.786,0.893,109.192,-64.636,-22.095
-0.894,0.644,0.833,104.004,-62.744,-14.404
-0.929,0.592,0.849,98.511,-63.965,-9.094
-0.910,0.572,0.825,96.436,-70.068,-3.967
-0.960,0.580,0.708,102.356,-80.566,-0.793
-0.973,0.604,0.453,112.000,-93.567,1.953
-0.988,0.650,0.109,120.300,-101.501,6.775
-1.006,0.753,-0.194,126.526,-97.595,12.268
-0.990,0.842,-0.345,132.202,-79.651,21.851
-0.889,0.803,-0.362,132.507,-53.955,37.231
-0.793,0.670,-0.270,119.507,-32.532,55.969
-0.682,0.504,-0.177,95.886,-20.874,73.547
-0.601,0.350,-0.146,70.923,-18.250,86.792
-0.517,0.236,-0.185,51.147,-20.447,94.788
-0.444,0.162,-0.263,39.551,-22.095,97.595
-0.343,0.143,-0.349,31.738,-20.752,96.619
-0.234,0.119,-0.377,26.123,-14.465,93.445
-0.103,0.128,-0.339,21.606,-2.930,89.722
0.044,0.141,-0.255,18.250,11.353,86.670
0.182,0.142,-0.129,12.085,24.597,85.083
0.351,0.139,0.014,2.258,35.034,84.412
0.532,0.151,0.225,-8.911,44.128,82.458
0.725,0.149,0.444,-22.217,49.377,78.613
0.876,0.117,0.574,-33.997,47.241,74.280
0.995,0.109,0.610,-44.250,41.992,68.176
1.052,0.115,0.645,-54.077,40.405,59.814
1.094,0.098,0.729,-63.416,46.143,51.147
1.131,0.046,0.843,-67.505,56.641,43.335
1.203,-0.048,0.997,-62.500,69.702,34.790
1.259,-0.156,1.218,-51.636,81.848,23.071
1.320,-0.241,1.473,-37.415,89.661,7.751
1.327,-0.315,1.672,-19.653,89.172,-9.827
1.318,-0.346,1.794,-6.836,79.468,-29.053
1.225,-0.303,1.872,-5.310,62.500,-47.302
1.065,-0.219,1.898,-10.986,43.457,-61.218
0.880,-0.129,1.875,-15.259,25.269,-68.542
0.695,-0.070,1.822,-16.541,11.108,-72.510
0.533,-0.044,1.799,-13.245,3.052,-78.125
0.394,-0.014,1.777,-5.188,-2.502,-86.853
0.255,0.071,1.711,2.747,-8.972,-97.595
0.087,0.224,1.645,8.789,-15.869,-108.459
-0.115,0.432,1.584,13.672,-21.545,-116.577
-0.287,0.544,1.519,16.907,-27.222,-117.981
-0.433,0.598,1.508,19.592,-31.067,-113.586
-0.513,0.645,1.538,26.184,-31.250,-109.070
-0.571,0.655,1.609,24.353,-33.936,-100.525
-0.640,0.652,1.605,19.775,-41.077,-90.393
-0.648,0.630,1.591,18.921,-52.307,-81.909
-0.710,0.621,1.427,20.813,-67.871,-75.439
-0.775,0.649,1.224,26.306,-76.660,-71.350
-0.860,0.660,1.062,37.354,-75.562,-68.115
-0.926,0.697,1.002,51.331,-66.345,-64.697
-0.951,0.773,0.992,65.369,-55.847,-60.181
-0.952,0.853,1.000,74.280,-48.706,-51.697
-0.939,0.905,0.969,73.853,-46.387,-37.964
-0.914,0.904,0.890,64.209,-50.659,-20.691
-0.887,0.847,0.764,50.781,-57.007,-1.282
-0.849,0.763,0.664,39.673,-59.875,16.479
-0.798,0.666,0.578,32.776,-58.533,31.067
-0.750,0.550,0.523,30.212,-53.894,42.664
-0.683,0.437,0.508,28.870,-46.509,50.659
-0.618,0.363,0.486,31.067,-39.795,55.603
-0.556,0.319,0.470,39.612,-32.776,58.960
-0.490,0.279,0.469,50.354,-25.513,62.012
-0.430,0.240,0.449,56.885,-20.752,64.819
-0.370,0.207,0.416,54.504,-18.250,67.200
-0.304,0.218,0.340,44.983,-16.479,68.054
-0.271,0.232,0.310,33.508,-11.475,69.336
-0.253,0.235,0.344,22.217,-2.625,71.167
-0.235,0.204,0.377,16.663,4.883,74.158
-0.232,0.139,0.377,14.404,10.132,76.843
-0.193,0.056,0.371,12.329,15.747,78.796
-0.130,-0.033,0.376,9.827,22.217,79.285
-0.053,-0.099,0.412,9.644,28.931,75.806
0.052,-0.120,0.462,15.137,37.231,69.092
0.124,-0.134,0.548,24.719,46.753,62.561
0.189,-0.114,0.647,32.959,54.382,55.420
0.230,-0.095,0.735,36.804,57.922,50.293
0.248,-0.059,0.813,33.569,57.678,47.485
0.267,-0.048,0.883,26.306,54.626,47.058
0.280,-0.060,0.911,14.221,47.180,48.340
0.258,-0.094,0.916,2.014,38.391,49.744
0.285,-0.144,0.925,-4.272,32.959,50.232
0.292,-0.193,0.954,-6.775,30.701,48.645
0.313,-0.211,0.974,-6.531,29.175,44.067
0.337,-0.210,1.002,-1.770,29.053,37.659
0.360,-0.214,1.040,5.859,30.579,30.457
0.371,-0.201,1.059,12.695,30.884,22.888
0.360,-0.152,1.082,18.066,30.029,15.381
0.322,-0.083,1.135,21.423,29.236,9.521
0.294,-0.035,1.193,21.790,26.611,7.507
0.266,-0.020,1.228,17.883,19.592,10.010
0.240,-0.081,1.233,8.667,8.972,15.381
0.206,-0.138,1.193,-3.174,-2.930,19.775

0.665,0.781,1.653,-106.140,29.724,-40.588
0.686,1.016,1.870,-103.699,38.025,-44.983
0.734,0.903,2.119,-93.201,41.992,-44.556
0.740,0.818,2.286,-82.397,32.227,-49.500
0.631,0.707,2.347,-73.975,4.395,-52.429
0.531,0.653,2.232,-74.951,-25.024,-54.260
0.412,0.620,2.084,-77.209,-45.898,-56.580
0.283,0.654,1.954,-74.524,-53.101,-63.049
0.205,0.728,1.827,-59.509,-50.171,-73.608
0.168,0.808,1.757,-36.560,-40.833,-84.961
0.124,0.910,1.792,-16.235,-28.259,-96.375
0.107,0.991,1.833,-2.441,-20.874,-105.042
0.010,1.053,1.909,6.470,-21.179,-108.276
-0.093,1.077,2.000,19.409,-23.376,-109.436
-0.169,1.003,1.999,29.053,-32.043,-105.713
-0.313,0.850,2.019,32.227,-43.823,-100.281
-0.400,0.779,2.056,35.461,-53.650,-99.976
-0.462,0.814,1.992,45.166,-66.406,-102.783
-0.515,0.909,1.834,58.167,-78.735,-105.591
-0.564,0.985,1.681,68.115,-85.632,-104.980
-0.627,1.057,1.532,75.623,-88.684,-100.586
-0.679,1.119,1.416,82.092,-89.661,-93.018
-0.776,1.225,1.287,86.609,-91.614,-82.703
-0.854,1.233,1.164,89.905,-92.957,-65.613
-0.909,1.150,1.048,88.379,-93.384,-45.044
-0.964,0.997,0.952,81.909,-95.337,-26.306
-1.007,0.823,0.797,77.332,-98.145,-13.123
-1.116,0.671,0.609,85.754,-99.548,-8.850
-1.172,0.608,0.329,104.004,-98.450,-11.658
-1.236,0.697,0.041,124.634,-90.027,-17.212
-1.269,0.850,-0.118,142.029,-70.313,-19.226
-1.207,1.013,-0.170,150.574,-43.396,-12.634
-1.131,1.047,-0.136,148.621,-18.738,4.150
-1.016,0.966,-0.062,131.897,-1.953,26.672
-0.879,0.825,0.035,107.361,8.606,49.133
-0.757,0.661,0.122,85.449,14.648,68.481
-0.634,0.511,0.160,68.848,15.381,82.520
-0.532,0.391,0.173,59.570,14.282,91.003
-0.447,0.300,0.186,55.664,13.550,94.910
-0.360,0.241,0.172,54.688,12.329,95.703
-0.267,0.204,0.116,53.223,9.705,94.177
-0.160,0.181,0.105,50.049,10.193,91.797
-0.016,0.191,0.110,45.288,14.832,89.050
0.068,0.230,0.066,39.978,19.348,87.708
0.164,0.266,0.077,28.564,26.550,87.524
0.275,0.293,0.174,12.512,37.354,88.562
0.382,0.258,0.324,-0.732,47.607,91.431
0.512,0.166,0.441,-11.658,52.490,94.666
0.655,0.072,0.496,-21.851,50.171,94.116
0.789,0.001,0.494,-29.724,45.959,87.524
0.903,-0.009,0.467,-31.433,45.593,75.562
0.982,-0.010,0.515,-27.466,54.871,61.279
1.042,-0.021,0.641,-20.203,70.190,45.898
1.082,-0.008,0.776,-11.353,83.435,32.288
1.130,-0.033,0.927,-5.188,92.712,22.705
1.190,-0.070,1.101,-8.057,97.595,16.907
1.243,-0.117,1.291,-19.287,95.032,11.902
1.269,-0.161,1.449,-31.555,84.656,5.493
1.257,-0.228,1.554,-37.781,69.214,-2.258
1.227,-0.278,1.587,-39.001,50.598,-13.916
1.142,-0.308,1.584,-35.217,32.104,-27.161
1.045,-0.283,1.511,-30.457,15.137,-41.199
0.906,-0.226,1.392,-24.902,2.075,-53.711
0.774,-0.169,1.276,-19.775,-4.211,-63.965
0.651,-0.087,1.212,-16.846,-5.188,-74.646
0.531,0.010,1.224,-14.404,-3.479,-84.351
0.401,0.095,1.246,-13.000,-3.052,-92.896
0.281,0.208,1.276,-13.428,-4.822,-98.267
0.171,0.310,1.298,-13.672,-6.714,-101.135
0.080,0.372,1.329,-10.132,-8.057,-101.929
0.010,0.394,1.349,-5.066,-7.751,-101.318
-0.005,0.388,1.428,-0.488,-7.507,-100.525
-0.069,0.387,1.474,3.235,-12.024,-99.182
-0.134,0.401,1.423,3.967,-19.592,-97.107
-0.250,0.430,1.383,2.075,-25.208,-93.994
-0.362,0.425,1.441,-4.639,-24.841,-88.684
-0.428,0.335,1.575,-14.282,-26.733,-80.872
-0.494,0.361,1.750,-16.663,-31.799,-77.698
-0.548,0.438,1.862,-9.277,-41.260,-78.918
-0.612,0.544,1.828,3.601,-57.373,-81.238
-0.703,0.692,1.642,19.043,-76.111,-83.679
-0.792,0.885,1.394,36.438,-89.722,-84.351
-0.880,1.077,1.133,54.382,-94.299,-79.712
-0.965,1.202,0.917,68.420,-90.637,-68.359
-1.024,1.224,0.813,74.890,-79.834,-51.147
-1.034,1.114,0.786,75.989,-66.345,-28.381
-1.011,0.941,0.786,71.106,-57.556,-5.798
-0.958,0.750,0.773,60.059,-53.345,14.160
-0.885,0.598,0.704,48.035,-52.979,29.785
-0.831,0.509,0.619,42.297,-52.124,39.490
-0.749,0.447,0.554,43.213,-47.058,44.739
-0.687,0.436,0.538,48.584,-39.734,47.058
-0.593,0.422,0.556,56.641,-30.579,48.828
-0.508,0.387,0.608,64.636,-21.790,52.246
-0.456,0.330,0.650,66.650,-17.090,57.495
-0.410,0.269,0.655,62.927,-16.663,64.026
-0.365,0.204,0.601,57.617,-19.531,71.289
-0.328,0.143,0.487,48.340,-23.926,78.186
-0.299,0.085,0.356,34.363,-26.245,83.557
-0.259,0.004,0.268,20.203,-22.705,87.402
-0.234,-0.065,0.227,10.132,-15.076,87.341
-0.154,-0.058,0.200,4.028,-5.432,81.543
-0.167,-0.003,0.226,7.080,5.981,72.266
-0.130,0.044,0.303,18.250,22.278,62.500
-0.046,0.095,0.452,33.142,39.978,55.115
0.011,0.083,0.599,46.936,51.575,50.964
0.085,0.057,0.685,55.420,55.359,49.377
0.167,0.037,0.701,56.702,53.589,49.500
0.222,0.032,0.687,49.255,49.500,50.232
0.261,0.031,0.665,35.522,46.326,51.636
0.306,0.025,0.655,21.545,45.044,52.673
0.339,0.012,0.702,11.902,47.241,53.162
0.372,-0.035,0.813,8.728,51.819,52.551
0.396,-0.064,0.933,9.033,54.016,50.293
0.408,-0.078,1.049,10.986,52.673,47.668
0.426,-0.085,1.140,13.489,48.096,45.105
0.423,-0.089,1.181,16.296,39.551,43.091
0.423,-0.131,1.179,17.395,28.748,42.725
0.417,-0.201,1.124,14.648,16.968,43.396

0.853,0.664,1.767,-83.679,60.547,-42.542
0.893,0.843,1.993,-38.635,59.631,-60.974
0.869,0.969,2.103,-12.146,49.072,-67.078
0.717,1.001,2.410,-19.287,27.649,-56.091
0.609,0.968,2.349,-55.603,-11.658,-31.555
0.570,0.878,2.077,-104.370,-50.476,-2.014
0.486,0.775,1.760,-139.099,-68.909,19.104
0.498,0.540,1.703,-145.264,-65.430,27.588
0.522,0.437,1.622,-133.728,-61.584,18.494
0.605,0.402,1.589,-110.291,-54.565,1.953
0.647,0.441,1.716,-87.769,-41.443,-20.203
0.654,0.501,1.874,-63.416,-32.104,-41.443
0.577,0.526,1.901,-41.504,-34.363,-57.007
0.459,0.550,1.908,-31.982,-40.588,-65.674
0.299,0.604,1.888,-34.668,-50.537,-68.298
0.191,0.686,1.762,-41.870,-64.819,-66.895
0.074,0.711,1.600,-47.852,-76.294,-62.256
-0.006,0.709,1.470,-54.688,-78.552,-59.082
-0.077,0.654,1.348,-54.993,-74.829,-58.960
-0.141,0.594,1.232,-47.302,-67.261,-64.026
-0.223,0.569,1.209,-34.485,-53.833,-73.792
-0.285,0.535,1.358,-15.442,-35.400,-85.449
-0.364,0.526,1.624,3.357,-20.264,-96.130
-0.435,0.610,1.928,16.357,-17.029,-105.530
-0.522,0.796,2.112,25.452,-26.611,-111.694
-0.612,0.995,2.116,31.250,-46.570,-112.183
-0.706,1.171,1.964,34.668,-70.435,-106.506
-0.764,1.275,1.748,36.377,-88.074,-92.407
-0.813,1.304,1.527,36.255,-98.022,-73.853
-0.822,1.224,1.355,38.269,-99.426,-53.711
-0.837,1.115,1.208,39.063,-96.558,-35.828
-0.835,1.027,1.058,42.847,-93.079,-22.583
-0.842,0.962,0.949,52.185,-86.975,-13.733
-0.826,0.931,0.908,63.477,-77.759,-7.751
-0.835,0.923,0.953,75.500,-68.542,-3.235
-0.862,0.888,1.008,89.966,-62.134,0.488
-0.882,0.839,0.992,103.516,-62.439,5.798
-0.897,0.822,0.842,110.229,-69.214,12.817
-0.889,0.814,0.604,109.192,-75.562,21.545
-0.888,0.796,0.392,104.309,-74.402,30.762
-0.834,0.739,0.236,97.412,-65.247,38.330
-0.824,0.662,0.124,92.896,-51.819,43.396
-0.782,0.631,0.061,94.666,-34.973,44.861
-0.750,0.624,0.085,98.328,-15.686,45.471
-0.722,0.619,0.184,96.130,-0.854,48.340
-0.700,0.631,0.266,86.670,5.798,54.321
-0.674,0.665,0.294,74.219,4.578,62.256
-0.658,0.696,0.230,62.378,-1.404,72.693
-0.601,0.679,0.095,50.537,-7.202,85.876
-0.544,0.608,-0.039,37.964,-10.132,99.060
-0.449,0.504,-0.122,28.320,-6.958,109.802
-0.309,0.379,-0.217,22.156,0.793,116.760
-0.221,0.257,-0.318,17.639,13.733,118.713
-0.047,0.179,-0.303,10.498,34.546,117.188
0.117,0.125,-0.158,5.737,58.350,111.145
0.308,0.106,0.111,7.202,82.947,102.051
0.508,0.101,0.457,11.780,101.379,92.041
0.676,0.078,0.747,13.916,107.056,84.106
0.838,0.056,0.936,11.292,100.891,78.125
0.931,0.031,1.020,6.348,88.806,73.181
1.008,-0.007,0.998,-0.244,75.195,69.946
1.115,-0.072,0.953,-7.385,65.674,67.383
1.193,-0.130,0.960,-17.822,64.636,62.988
1.216,-0.233,1.052,-26.123,69.031,56.274
1.250,-0.317,1.219,-32.227,73.792,46.326
1.248,-0.422,1.363,-31.128,73.608,32.288
1.219,-0.474,1.414,-21.912,67.749,12.817
1.159,-0.416,1.429,-9.827,59.814,-8.972
1.103,-0.311,1.414,3.784,51.880,-29.480
1.044,-0.219,1.373,17.822,44.739,-45.715
0.968,-0.119,1.290,28.687,38.574,-57.312
0.847,-0.091,1.273,34.241,34.729,-64.087
0.728,-0.103,1.265,34.607,31.738,-68.848
0.601,-0.134,1.285,31.921,28.442,-73.792
0.487,-0.131,1.336,23.987,24.780,-80.627
0.359,-0.081,1.396,11.353,18.982,-88.440
0.247,0.015,1.413,-3.113,10.254,-96.191
0.121,0.131,1.385,-11.902,-0.977,-101.929
0.017,0.218,1.382,-15.564,-8.545,-104.736
-0.096,0.264,1.367,-17.578,-14.465,-105.103
-0.164,0.297,1.463,-16.602,-19.714,-104.736
-0.268,0.375,1.537,-12.512,-27.527,-104.797
-0.357,0.485,1.520,-7.080,-37.415,-102.783
-0.455,0.609,1.446,-3.052,-46.997,-97.412
-0.553,0.711,1.376,2.014,-52.979,-89.905
-0.643,0.763,1.348,8.789,-56.396,-80.078
-0.719,0.815,1.319,14.709,-60.425,-70.984
-0.803,0.870,1.246,18.433,-66.467,-61.523
-0.860,0.871,1.140,21.973,-72.144,-50.720
-0.902,0.829,1.001,24.963,-76.050,-38.025
-0.929,0.755,0.847,26.489,-77.087,-25.574
-0.956,0.707,0.705,26.672,-73.242,-15.259
-0.964,0.673,0.665,29.907,-62.561,-8.240
-0.919,0.674,0.690,37.659,-46.814,-2.991
-0.871,0.630,0.753,48.584,-32.410,2.258
-0.806,0.579,0.826,56.702,-22.339,8.362
-0.755,0.539,0.847,61.646,-18.799,15.076
-0.685,0.519,0.819,63.782,-20.142,21.790
-0.648,0.480,0.783,60.852,-22.583,30.212
-0.562,0.429,0.697,52.979,-25.818,40.405
-0.557,0.348,0.603,44.006,-28.625,50.903
-0.538,0.304,0.519,34.790,-27.100,59.998
-0.478,0.281,0.435,29.053,-22.461,67.505
-0.426,0.215,0.432,27.588,-13.611,73.242
-0.355,0.128,0.484,28.442,-1.648,75.500
-0.318,0.062,0.517,28.748,6.409,73.425
-0.292,0.068,0.508,29.114,10.681,68.481
-0.281,0.119,0.483,32.043,14.099,63.599
-0.252,0.146,0.479,36.438,18.555,61.707
-0.218,0.125,0.514,37.537,23.193,63.416
-0.119,0.111,0.509,35.217,24.719,66.833
-0.032,0.085,0.508,32.043,25.085,69.336
0.066,0.096,0.501,26.978,28.687,69.214
0.122,0.067,0.548,24.719,35.156,68.481
0.176,0.050,0.640,22.034,42.603,65.552
0.213,0.031,0.722,22.156,46.021,62.683
0.218,0.011,0.785,22.827,45.410,60.791
0.221,-0.014,0.835,20.691,42.725,59.570
0.248,-0.028,0.854,15.991,37.292,59.937

0.643,0.593,1.458,-126.648,0.305,-9.277
0.713,0.697,1.510,-103.271,12.146,-19.775
0.656,0.869,1.625,-75.134,30.640,-29.602
0.801,0.775,1.919,-54.260,47.668,-29.541
0.692,0.689,2.185,-51.514,41.199,-29.724
0.682,0.588,2.285,-64.941,13.123,-25.696
0.661,0.454,2.116,-85.938,-21.362,-20.386
0.628,0.355,1.797,-103.333,-49.500,-20.020
0.631,0.339,1.572,-108.704,-53.040,-28.931
0.637,0.394,1.451,-96.863,-38.818,-42.908
0.639,0.516,1.477,-73.120,-15.808,-59.448
0.650,0.604,1.661,-44.861,9.338,-75.439
0.591,0.655,1.881,-18.677,26.306,-89.478
0.504,0.684,2.031,1.709,30.945,-99.243
0.326,0.699,2.200,9.216,25.452,-102.661
0.197,0.720,2.335,2.014,10.986,-102.783
0.090,0.743,2.342,-11.719,-13.428,-100.647
-0.051,0.846,2.219,-21.484,-41.504,-100.769
-0.180,1.001,2.001,-21.301,-63.171,-103.882
-0.296,1.066,1.754,-9.521,-75.012,-104.492
-0.438,1.174,1.570,11.230,-73.364,-106.995
-0.567,1.229,1.495,28.015,-64.758,-107.361
-0.682,1.235,1.502,38.025,-55.542,-102.783
-0.797,1.234,1.549,42.664,-50.598,-94.543
-0.882,1.229,1.582,44.373,-52.734,-84.106
-0.964,1.234,1.566,42.847,-62.439,-71.350
-0.987,1.290,1.452,40.466,-78.125,-58.350
-1.005,1.298,1.289,45.837,-92.163,-44.434
-1.016,1.273,1.064,58.228,-102.478,-31.067
-1.032,1.251,0.807,73.547,-107.605,-19.165
-1.028,1.235,0.578,84.717,-104.614,-7.568
-1.016,1.218,0.454,91.797,-93.384,4.944
-1.005,1.101,0.407,97.961,-78.430,20.569
-0.951,0.958,0.396,101.868,-64.331,35.278
-0.848,0.788,0.414,102.783,-53.101,46.631
-0.786,0.675,0.390,99.976,-47.546,53.833
-0.720,0.606,0.361,95.459,-44.861,59.265
-0.651,0.562,0.310,92.224,-43.396,63.049
-0.599,0.515,0.280,88.501,-41.931,65.918
-0.531,0.450,0.239,83.252,-40.222,68.542
-0.472,0.394,0.205,82.642,-39.246,69.885
-0.396,0.406,0.137,81.970,-38.513,69.275
-0.401,0.466,0.031,77.026,-38.391,71.228
-0.371,0.493,-0.122,70.496,-35.889,80.078
-0.289,0.460,-0.285,57.495,-30.090,91.309
-0.261,0.380,-0.312,37.537,-16.724,101.746
-0.176,0.286,-0.221,17.090,3.113,108.032
-0.071,0.195,-0.097,6.287,20.874,107.544
0.032,0.117,0.013,4.028,34.424,103.760
0.117,0.064,0.103,5.371,44.678,96.680
0.203,0.025,0.187,9.888,52.124,88.440
0.298,0.020,0.292,12.024,57.922,80.078
0.419,0.046,0.365,10.193,60.364,73.242
0.528,0.092,0.448,2.014,60.669,70.007
0.633,0.095,0.600,-9.155,63.171,69.519
0.730,0.057,0.758,-20.203,66.040,69.458
0.843,-0.042,0.890,-30.945,64.819,68.115
0.872,-0.102,0.972,-44.434,60.974,64.148
0.901,-0.131,1.008,-53.223,54.749,56.091
0.881,-0.155,1.034,-53.040,49.805,43.762
0.915,-0.151,1.038,-43.640,47.729,28.442
0.944,-0.158,1.056,-26.733,49.255,11.780
0.994,-0.164,1.106,-8.484,54.688,-4.272
1.007,-0.138,1.212,2.319,60.486,-20.081
1.008,-0.084,1.313,6.897,64.087,-32.654
0.945,-0.028,1.401,8.362,62.866,-40.771
0.897,0.010,1.435,5.188,56.824,-43.762
0.832,0.006,1.418,0.244,47.180,-44.617
0.785,-0.031,1.407,-5.371,38.757,-46.814
0.734,-0.039,1.409,-11.353,31.250,-52.979
0.670,-0.029,1.417,-16.602,24.353,-62.073
0.593,0.014,1.421,-20.752,17.029,-73.547
0.509,0.118,1.402,-20.630,11.108,-86.182
0.442,0.225,1.488,-15.930,8.789,-96.802
0.274,0.293,1.519,-11.780,6.226,-104.309
0.179,0.403,1.583,-9.521,1.587,-107.239
0.052,0.477,1.560,-6.042,-3.906,-106.140
-0.056,0.547,1.566,-3.418,-5.676,-103.333
-0.130,0.551,1.549,2.502,-8.789,-98.572
-0.178,0.516,1.568,11.292,-12.939,-94.788
-0.225,0.503,1.632,19.592,-17.639,-93.567
-0.303,0.509,1.683,28.748,-25.818,-95.093
-0.410,0.534,1.675,36.377,-37.354,-96.863
-0.504,0.576,1.624,40.649,-49.438,-97.351
-0.600,0.601,1.586,43.579,-58.655,-96.436
-0.680,0.653,1.556,46.082,-64.697,-93.445
-0.740,0.757,1.473,47.058,-70.129,-87.646
-0.813,0.892,1.352,52.063,-75.378,-79.163
-0.841,1.008,1.224,55.786,-78.613,-66.040
-0.886,1.085,1.090,54.199,-80.383,-49.316
-0.918,1.071,0.964,49.744,-81.665,-31.067
-0.931,1.037,0.821,44.922,-80.322,-13.428
-0.935,0.962,0.698,45.715,-76.294,1.404
-0.913,0.863,0.631,51.208,-67.444,13.733
-0.870,0.735,0.610,58.167,-56.641,24.353
-0.794,0.628,0.589,63.171,-48.279,32.349
-0.720,0.559,0.575,67.139,-41.931,38.696
-0.641,0.513,0.563,68.909,-36.560,44.434
-0.572,0.454,0.557,68.115,-33.386,50.537
-0.506,0.376,0.527,64.331,-32.227,57.251
-0.473,0.344,0.396,60.547,-33.325,64.575
-0.444,0.302,0.251,59.692,-30.457,73.181
-0.429,0.205,0.197,55.237,-19.104,78.674
-0.382,0.140,0.185,46.143,-5.981,81.299
-0.353,0.100,0.222,38.025,6.104,82.581
-0.274,0.093,0.265,32.532,16.968,82.764
-0.186,0.083,0.328,30.579,25.391,82.947
-0.105,0.073,0.407,28.259,32.532,83.130
0.002,0.056,0.488,26.367,37.720,82.581
0.095,0.023,0.545,24.719,40.039,81.665
0.148,-0.012,0.609,20.691,41.565,80.933
0.178,-0.058,0.674,18.555,42.542,80.017
0.204,-0.109,0.728,18.860,41.992,78.308
0.247,-0.152,0.742,18.677,39.307,76.111
0.288,-0.174,0.723,15.442,35.034,72.998
0.343,-0.178,0.724,8.728,32.043,69.153
0.406,-0.185,0.764,3.113,31.799,65.186
0.453,-0.192,0.822,-0.244,32.593,60.425
0.483,-0.191,0.901,1.587,33.936,53.833

0.494,0.908,1.267,-93.384,22.766,-25.696
0.474,0.933,1.566,-104.065,30.884,-17.090
0.576,1.004,1.599,-115.234,20.752,-10.437
0.684,0.989,1.612,-124.023,15.930,-4.517
0.782,0.941,1.696,-122.070,27.405,-1.953
0.913,0.791,2.042,-106.506,45.166,-5.859
0.999,0.667,2.233,-85.510,35.095,-18.066
1.024,0.629,2.224,-70.740,9.827,-32.166
0.951,0.732,2.084,-62.500,-13.245,-46.387
0.865,0.830,1.865,-57.129,-27.710,-53.894
0.755,0.846,1.788,-56.335,-26.184,-54.749
0.599,0.778,1.895,-57.068,-16.296,-54.260
0.553,0.650,2.077,-58.899,-9.766,-56.458
0.456,0.617,2.235,-58.899,-12.146,-63.293
0.392,0.659,2.317,-53.406,-21.301,-74.402
0.320,0.770,2.276,-43.030,-36.926,-86.121
0.220,0.880,2.185,-24.109,-51.086,-96.802
0.080,0.978,2.078,-3.296,-60.852,-105.530
-0.077,1.051,1.976,15.991,-69.763,-110.901
-0.220,1.122,1.908,30.579,-76.599,-112.915
-0.365,1.173,1.860,38.879,-82.092,-110.840
-0.517,1.215,1.782,43.640,-89.172,-104.492
-0.632,1.235,1.660,47.913,-96.436,-95.764
-0.720,1.207,1.581,53.101,-100.220,-86.365
-0.793,1.168,1.464,59.631,-101.868,-78.308
-0.846,1.112,1.308,68.420,-105.042,-72.327
-0.929,1.120,1.105,77.393,-106.384,-68.542
-0.999,1.160,0.919,89.172,-104.614,-64.392
-1.105,1.215,0.722,102.173,-100.708,-56.213
-1.116,1.228,0.573,109.741,-93.445,-42.725
-1.132,1.154,0.507,110.596,-83.923,-24.048
-1.106,1.049,0.449,105.164,-78.247,-5.615
-1.098,0.946,0.380,96.985,-76.843,9.094
-1.036,0.858,0.242,91.431,-75.806,21.057
-0.976,0.763,0.124,91.919,-70.740,30.396
-0.895,0.691,0.029,91.980,-60.913,36.438
-0.823,0.613,0.029,89.111,-45.776,41.016
-0.759,0.561,0.063,87.585,-29.297,44.128
-0.691,0.514,0.129,90.332,-16.052,45.837
-0.649,0.493,0.200,91.248,-7.263,48.218
-0.625,0.498,0.271,87.830,-4.272,52.002
-0.597,0.517,0.298,80.322,-5.737,56.824
-0.577,0.531,0.262,70.618,-11.597,64.148
-0.545,0.520,0.204,58.655,-18.372,72.876
-0.509,0.481,0.118,45.959,-23.254,82.581
-0.443,0.410,0.020,32.532,-26.428,90.881
-0.323,0.343,-0.105,22.583,-25.085,96.680
-0.261,0.305,-0.192,16.235,-17.212,98.022
-0.180,0.260,-0.164,11.597,-1.221,96.619
-0.025,0.266,-0.109,9.766,16.602,92.957
0.060,0.260,0.046,10.742,34.119,89.417
0.154,0.241,0.285,7.446,50.720,87.524
0.243,0.204,0.458,2.319,54.993,86.487
0.316,0.149,0.532,-3.784,49.255,86.487
0.388,0.105,0.541,-13.550,42.419,86.060
0.475,0.058,0.503,-22.095,37.354,83.313
0.584,0.007,0.486,-28.015,37.659,78.308
0.706,-0.005,0.525,-31.738,46.204,70.679
0.816,-0.004,0.624,-29.358,61.340,60.120
0.883,0.006,0.819,-22.217,78.674,50.476
0.965,0.009,1.067,-13.367,91.064,41.016
0.987,-0.064,1.302,-7.202,92.590,34.058
1.025,-0.120,1.427,-11.292,81.360,27.832
1.001,-0.158,1.445,-21.667,58.960,21.179
0.995,-0.154,1.396,-32.654,35.889,11.719
0.971,-0.123,1.317,-37.537,18.738,1.770
0.989,-0.102,1.233,-33.997,9.033,-8.667
0.980,-0.087,1.229,-27.771,8.362,-20.508
0.978,-0.067,1.254,-23.132,12.512,-32.532
0.893,-0.047,1.286,-21.301,13.977,-44.006
0.808,-0.002,1.321,-20.569,14.526,-54.504
0.695,0.066,1.340,-18.555,12.451,-63.965
0.574,0.167,1.340,-20.630,8.606,-71.594
0.457,0.244,1.346,-21.790,5.432,-75.745
0.379,0.292,1.347,-20.142,2.747,-78.247
0.339,0.316,1.373,-17.029,0.610,-80.994
0.259,0.335,1.435,-10.315,-1.343,-84.473
0.197,0.391,1.387,-1.831,-2.930,-89.417
0.101,0.445,1.353,8.118,-2.502,-93.628
-0.003,0.446,1.475,16.235,4.883,-97.656
-0.124,0.420,1.687,21.240,10.315,-99.976
-0.239,0.450,1.899,17.639,5.005,-101.563
-0.354,0.536,1.934,12.878,-12.939,-102.051
-0.456,0.640,1.839,11.963,-34.973,-100.159
-0.530,0.716,1.674,14.282,-51.514,-96.924
-0.592,0.739,1.529,20.081,-60.547,-93.201
-0.669,0.762,1.411,27.466,-62.134,-90.942
-0.730,0.824,1.344,39.917,-58.899,-90.576
-0.811,0.865,1.338,55.054,-53.406,-87.585
-0.874,0.906,1.394,65.979,-49.194,-79.834
-0.898,0.922,1.428,70.313,-50.903,-67.993
-0.903,0.938,1.334,66.711,-59.937,-51.331
-0.930,0.928,1.164,57.190,-71.899,-33.936
-0.938,0.933,0.974,49.316,-79.041,-18.433
-0.926,0.916,0.823,49.011,-78.186,-4.822
-0.870,0.860,0.687,52.979,-73.120,6.531
-0.830,0.789,0.601,57.556,-63.965,17.944
-0.768,0.696,0.585,60.852,-52.002,27.893
-0.713,0.584,0.594,62.744,-41.443,36.804
-0.667,0.477,0.599,64.392,-34.729,44.495
-0.591,0.389,0.584,63.843,-31.494,49.255
-0.569,0.337,0.549,61.462,-30.518,52.612
-0.517,0.291,0.534,59.204,-28.442,55.725
-0.481,0.262,0.499,55.847,-27.893,57.312
-0.450,0.241,0.416,51.270,-28.931,60.059
-0.402,0.229,0.298,45.898,-28.381,63.599
-0.337,0.239,0.141,43.945,-25.391,66.040
-0.287,0.225,0.115,45.776,-12.451,67.627
-0.244,0.178,0.210,47.119,8.545,68.481
-0.179,0.160,0.340,45.105,24.536,67.688
-0.127,0.134,0.424,37.537,31.067,68.848
-0.082,0.120,0.466,27.039,31.799,71.167
-0.058,0.124,0.500,19.592,31.250,72.937
-0.010,0.086,0.516,15.564,29.724,75.012
0.049,0.028,0.492,10.986,26.672,76.965
0.108,-0.013,0.463,3.479,25.146,77.576
0.161,-0.050,0.471,-3.540,28.748,76.294
0.221,-0.112,0.538,-1.770,37.659,72.998
0.271,-0.187,0.664,4.028,49.133,67.566

0.380,0.794,1.922,-89.722,34.546,-34.546
0.418,0.852,2.022,-90.271,13.672,-34.485
0.374,1.032,1.849,-92.957,-18.494,-29.480
0.424,0.959,1.611,-101.379,-35.034,-19.348
0.443,0.911,1.560,-111.206,-31.738,-17.883
0.499,0.902,1.550,-105.347,-26.978,-19.592
0.552,0.904,1.601,-90.393,-23.926,-25.085
0.602,0.854,1.722,-76.538,-13.733,-31.311
0.604,0.810,1.846,-63.599,-5.432,-37.903
0.553,0.751,1.917,-50.476,-4.333,-44.067
0.523,0.723,1.966,-40.833,-4.150,-49.377
0.449,0.730,1.934,-36.194,-10.925,-53.101
0.397,0.749,1.789,-30.701,-21.851,-53.894
0.385,0.756,1.686,-27.039,-26.184,-55.664
0.346,0.776,1.594,-28.198,-24.536,-59.265
0.283,0.751,1.593,-21.545,-16.724,-63.599
0.230,0.670,1.696,-9.583,-4.272,-70.068
0.159,0.573,1.875,-2.808,4.944,-79.529
0.086,0.595,2.050,2.686,6.836,-89.722
-0.034,0.701,2.210,12.695,-0.305,-100.647
-0.105,0.903,2.212,23.010,-17.212,-110.229
-0.230,1.131,2.092,37.903,-40.039,-114.197
-0.358,1.290,1.945,52.246,-57.861,-111.938
-0.468,1.360,1.762,61.707,-71.411,-104.248
-0.584,1.370,1.547,65.369,-81.482,-93.262
-0.695,1.304,1.380,66.345,-86.060,-79.346
-0.800,1.207,1.271,64.392,-85.876,-66.101
-0.876,1.115,1.219,65.002,-83.801,-55.969
-0.917,1.071,1.160,69.641,-83.252,-49.683
-0.962,1.104,1.045,75.317,-86.121,-45.166
-0.998,1.154,0.903,81.116,-89.417,-39.063
-1.048,1.182,0.747,83.862,-91.309,-29.907
-1.066,1.221,0.549,83.069,-91.736,-17.517
-1.114,1.163,0.356,82.397,-88.989,-1.831
-1.105,1.101,0.198,79.285,-80.750,12.207
-1.103,0.946,0.068,80.139,-68.359,27.588
-1.026,0.786,0.035,81.055,-50.171,39.307
-0.958,0.658,0.083,78.674,-32.227,46.448
-0.889,0.614,0.152,76.050,-18.799,49.683
-0.824,0.606,0.190,78.796,-9.888,49.561
-0.747,0.619,0.208,86.670,-4.211,49.500
-0.681,0.646,0.242,91.858,-0.854,51.208
-0.630,0.678,0.251,91.431,-1.160,56.702
-0.585,0.683,0.195,85.266,-5.066,66.589
-0.542,0.647,0.082,74.524,-9.705,79.529
-0.502,0.564,-0.028,58.838,-10.376,93.140
-0.440,0.470,-0.121,42.603,-7.141,104.919
-0.367,0.349,-0.150,31.494,0.000,112.610
-0.210,0.219,-0.120,21.362,11.902,115.417
-0.144,0.122,-0.030,15.320,24.597,112.976
-0.014,0.078,0.095,15.747,38.086,105.713
0.086,0.068,0.262,19.043,49.927,96.802
0.189,0.077,0.411,23.254,56.458,89.233
0.306,0.090,0.509,25.513,57.007,82.764
0.386,0.129,0.562,21.118,53.040,78.552
0.449,0.131,0.608,10.559,49.194,77.087
0.511,0.105,0.659,-1.282,47.485,77.209
0.573,0.068,0.728,-10.376,46.875,76.355
0.636,0.008,0.816,-16.479,47.485,74.402
0.692,-0.075,0.916,-21.240,47.119,70.679
0.739,-0.112,0.982,-25.146,43.335,63.110
0.793,-0.122,0.991,-26.001,36.072,52.246
0.811,-0.075,0.999,-24.536,29.175,39.673
0.824,-0.021,1.015,-19.104,25.574,26.489
0.781,0.018,1.025,-10.559,22.888,14.893
0.787,0.052,1.024,-5.310,20.813,7.141
0.770,0.058,1.002,-5.798,17.578,3.906
0.766,0.042,0.975,-12.329,14.404,2.930
0.746,0.004,0.978,-21.423,12.634,1.160
0.771,-0.017,0.955,-28.442,12.024,-2.258
0.752,-0.032,0.968,-31.555,12.268,-8.911
0.723,-0.035,1.041,-33.997,16.479,-18.921
0.686,-0.040,1.130,-33.020,18.494,-29.846
0.642,-0.009,1.176,-29.968,16.846,-41.199
0.570,0.037,1.206,-26.001,14.465,-51.941
0.506,0.091,1.236,-22.949,13.672,-60.608
0.438,0.156,1.260,-22.156,13.306,-66.162
0.373,0.203,1.293,-22.949,12.207,-70.923
0.345,0.251,1.300,-24.231,10.803,-74.280
0.278,0.324,1.338,-24.109,8.240,-77.576
0.216,0.381,1.491,-21.545,7.568,-80.322
0.112,0.387,1.547,-14.160,5.066,-81.909
0.034,0.373,1.700,-6.714,5.310,-83.801
-0.033,0.353,1.840,-0.916,0.732,-87.097
-0.120,0.396,1.913,6.348,-10.620,-92.285
-0.202,0.502,1.937,12.085,-25.269,-98.999
-0.292,0.661,1.837,18.433,-43.152,-103.821
-0.373,0.809,1.696,26.733,-56.152,-104.858
-0.459,0.912,1.614,34.546,-60.486,-100.220
-0.546,0.979,1.584,39.734,-61.096,-91.309
-0.623,1.006,1.563,44.067,-61.340,-80.322
-0.684,1.008,1.499,48.584,-63.660,-68.359
-0.738,0.945,1.425,51.636,-66.772,-55.420
-0.784,0.852,1.366,52.490,-68.848,-43.091
-0.819,0.727,1.320,51.331,-71.289,-31.860
-0.841,0.665,1.225,47.668,-76.782,-22.461
-0.849,0.621,1.077,46.936,-82.886,-15.381
-0.872,0.621,0.917,47.485,-85.266,-8.972
-0.861,0.605,0.737,49.194,-84.229,-3.906
-0.866,0.621,0.608,52.002,-78.369,-0.183
-0.866,0.624,0.566,59.692,-65.613,3.601
-0.857,0.618,0.589,67.688,-51.880,9.094
-0.826,0.605,0.597,70.801,-42.908,16.357
-0.804,0.570,0.562,71.472,-38.879,25.452
-0.785,0.525,0.527,68.298,-37.292,33.264
-0.726,0.534,0.464,59.204,-36.743,40.405
-0.712,0.513,0.393,52.185,-36.926,49.072
-0.660,0.454,0.304,45.288,-35.583,57.861
-0.628,0.383,0.214,38.208,-33.203,66.162
-0.542,0.332,0.136,29.602,-26.794,71.106
-0.533,0.293,0.086,28.198,-16.357,74.036
-0.483,0.232,0.096,34.241,-0.366,75.500
-0.450,0.177,0.161,39.673,17.151,73.486
-0.388,0.144,0.228,43.213,30.945,71.594
-0.307,0.130,0.241,46.082,38.757,69.336
-0.238,0.124,0.234,43.274,44.189,66.956
-0.119,0.141,0.238,36.682,49.927,65.002
-0.001,0.151,0.292,32.104,58.044,64.392
0.093,0.131,0.427,28.015,68.848,63.416

0.555,0.777,1.630,-86.792,43.457,-34.729
0.550,0.843,1.952,-85.999,31.860,-33.569
0.490,0.818,1.955,-95.520,2.380,-28.320
0.387,0.893,1.678,-112.183,-28.870,-21.667
0.388,0.813,1.515,-126.709,-43.762,-14.709
0.346,0.806,1.387,-132.507,-46.814,-15.503
0.343,0.856,1.325,-122.559,-39.856,-18.982
0.467,0.878,1.364,-100.281,-18.188,-26.184
0.534,0.935,1.479,-75.500,5.920,-36.926
0.569,1.018,1.754,-54.871,31.677,-48.584
0.608,1.020,2.090,-28.748,49.133,-57.556
0.626,0.938,2.406,-9.766,50.354,-61.646
0.657,0.860,2.561,-10.559,28.992,-62.500
0.432,0.765,2.544,-23.437,-10.559,-61.218
0.359,0.839,2.297,-44.983,-51.636,-62.134
0.229,0.908,1.926,-53.162,-82.153,-61.035
0.115,0.907,1.634,-45.227,-90.088,-61.218
0.013,0.877,1.489,-30.273,-80.139,-65.918
-0.038,0.844,1.460,-5.127,-61.768,-74.707
-0.091,0.835,1.586,22.766,-40.100,-85.999
-0.161,0.849,1.758,44.189,-26.184,-96.436
-0.251,0.879,1.889,58.228,-25.574,-103.027
-0.353,0.970,1.979,65.674,-35.583,-105.469
-0.499,1.104,1.991,65.125,-54.199,-103.699
-0.635,1.163,1.832,63.599,-79.346,-95.947
-0.746,1.161,1.540,63.538,-102.600,-86.060
-0.830,1.186,1.208,61.218,-116.638,-75.439
-0.917,1.190,0.914,62.439,-121.094,-64.575
-0.991,1.161,0.722,70.618,-110.840,-53.711
-1.023,1.116,0.667,81.970,-91.614,-44.312
-1.009,1.094,0.689,91.858,-71.838,-36.438
-1.006,1.085,0.745,100.342,-59.387,-28.503
-1.004,1.075,0.751,102.600,-55.908,-18.982
-0.972,1.073,0.656,98.083,-59.570,-6.897
-0.971,1.036,0.534,89.294,-63.843,6.897
-0.941,0.960,0.418,81.604,-64.026,21.851
-0.902,0.840,0.322,75.806,-61.340,34.851
-0.839,0.722,0.234,72.266,-57.007,44.495
-0.784,0.643,0.145,71.228,-49.927,52.246
-0.749,0.561,0.047,72.021,-42.847,58.228
-0.709,0.484,0.017,70.007,-32.715,62.317
-0.678,0.448,0.007,65.674,-21.667,63.965
-0.649,0.470,0.013,61.218,-13.794,64.087
-0.610,0.512,0.037,58.350,-7.385,65.308
-0.563,0.530,0.043,58.594,-3.845,69.641
-0.511,0.479,0.015,57.739,-3.235,76.965
-0.458,0.401,-0.053,48.218,-5.371,86.487
-0.392,0.328,-0.157,30.640,-8.789,95.642
-0.346,0.253,-0.268,12.024,-8.789,103.760
-0.260,0.173,-0.327,-1.526,-1.648,108.765
-0.127,0.089,-0.359,-11.292,11.780,109.497
-0.022,0.000,-0.240,-16.113,31.067,104.004
0.129,-0.038,0.002,-16.235,56.030,92.346
0.250,0.026,0.250,-10.620,73.486,77.515
0.363,0.104,0.500,-0.732,83.252,64.209
0.472,0.195,0.751,6.836,88.135,54.688
0.538,0.240,0.928,8.667,84.351,50.415
0.634,0.240,1.000,5.981,71.838,49.561
0.714,0.234,0.983,-4.944,57.190,51.697
0.760,0.221,0.973,-20.386,47.058,53.955
0.825,0.151,1.001,-30.396,44.006,53.406
0.899,0.075,1.081,-34.790,45.715,48.767
0.920,0.036,1.171,-34.790,47.363,39.368
0.954,0.035,1.245,-29.480,47.363,26.978
0.960,0.031,1.329,-22.888,44.739,13.977
0.932,0.086,1.382,-17.822,38.574,0.854
0.849,0.118,1.394,-10.132,28.870,-9.399
0.844,0.153,1.315,-7.141,17.578,-16.968
0.767,0.175,1.169,-10.620,5.676,-21.729
0.731,0.191,1.007,-15.259,-1.221,-24.902
0.678,0.176,0.916,-17.517,1.465,-28.137
0.643,0.166,0.914,-19.775,10.803,-33.569
0.602,0.135,0.974,-21.240,20.325,-39.978
0.592,0.095,1.099,-21.118,26.855,-46.387
0.516,0.049,1.227,-19.836,29.175,-54.749
0.497,0.049,1.362,-18.005,27.344,-63.599
0.445,0.071,1.414,-17.212,17.578,-71.777
0.395,0.122,1.474,-18.372,9.216,-80.200
0.319,0.180,1.498,-15.991,-1.099,-87.280
0.266,0.247,1.506,-12.451,-10.681,-92.590
0.175,0.315,1.503,-8.911,-19.165,-97.229
0.083,0.421,1.493,-5.493,-23.254,-102.051
-0.057,0.552,1.508,-0.122,-24.536,-106.628
-0.177,0.696,1.558,7.385,-23.926,-109.741
-0.297,0.830,1.612,13.916,-26.001,-108.887
-0.423,0.938,1.649,17.700,-33.508,-103.638
-0.523,1.000,1.637,20.752,-43.884,-93.506
-0.605,0.980,1.623,21.667,-54.443,-80.200
-0.680,0.906,1.615,18.799,-64.148,-65.979
-0.737,0.826,1.557,17.334,-74.829,-54.138
-0.783,0.795,1.451,18.555,-84.412,-46.570
-0.833,0.802,1.322,26.367,-91.003,-43.518
-0.880,0.844,1.164,40.649,-92.773,-43.091
-0.940,0.980,0.984,57.312,-91.064,-43.701
-0.984,1.071,0.849,72.754,-84.167,-40.710
-0.993,1.151,0.729,82.336,-73.608,-31.677
-0.992,1.123,0.649,85.510,-62.744,-15.747
-0.947,1.018,0.597,78.735,-52.429,3.906
-0.902,0.867,0.562,68.787,-46.387,24.353
-0.853,0.680,0.543,58.044,-42.175,41.565
-0.798,0.511,0.500,46.814,-39.368,54.199
-0.769,0.363,0.451,41.016,-35.339,61.035
-0.666,0.288,0.425,40.100,-27.222,61.951
-0.614,0.209,0.484,48.462,-15.869,58.472
-0.517,0.190,0.539,63.416,-4.150,49.683
-0.463,0.230,0.576,78.430,2.869,41.138
-0.422,0.302,0.625,88.074,6.653,35.278
-0.382,0.355,0.665,90.149,7.629,35.217
-0.367,0.366,0.639,81.726,1.953,41.626
-0.367,0.366,0.494,60.181,-7.324,53.711
-0.341,0.296,0.306,37.842,-14.099,67.139
-0.278,0.217,0.192,20.935,-10.010,76.233
-0.230,0.133,0.175,12.695,1.831,80.139
-0.154,0.049,0.240,11.841,18.066,78.125
-0.066,0.056,0.296,17.395,33.630,71.045
-0.002,0.046,0.453,29.175,49.927,62.439
0.088,0.070,0.599,42.908,63.782,52.551
0.124,0.077,0.721,56.519,68.970,44.983
0.161,0.109,0.809,61.401,69.580,40.527

0.839,0.580,1.605,-95.703,77.637,-5.737
0.946,0.558,1.744,-65.918,79.712,-21.301
0.976,0.655,1.949,-48.706,75.500,-34.729
0.870,0.721,2.077,-42.786,51.392,-38.818
0.839,0.841,1.971,-58.899,13.977,-32.654
0.766,0.822,1.781,-84.045,-15.625,-16.113
0.751,0.707,1.656,-104.187,-23.743,-4.089
0.753,0.567,1.629,-109.558,-17.029,-2.319
0.825,0.455,1.717,-104.736,-4.028,-12.573
0.826,0.422,1.861,-90.942,5.737,-34.180
0.869,0.497,1.996,-69.275,10.010,-59.753
0.816,0.598,2.138,-49.072,7.263,-84.412
0.694,0.746,2.268,-34.973,0.427,-101.318
0.496,0.845,2.366,-15.869,-10.620,-109.314
0.354,0.963,2.339,-4.333,-27.588,-110.291
0.167,0.988,2.300,-8.118,-49.927,-101.868
0.046,1.054,2.109,-5.005,-70.557,-95.642
-0.088,1.104,1.844,1.282,-88.745,-90.271
-0.196,1.152,1.602,8.301,-95.581,-87.341
-0.284,1.127,1.441,26.489,-91.309,-88.379
-0.334,1.108,1.390,50.293,-80.078,-92.163
-0.375,1.085,1.415,69.763,-68.420,-96.008
-0.444,1.083,1.462,79.895,-62.744,-96.252
-0.521,1.083,1.508,82.520,-63.843,-91.614
-0.626,1.110,1.508,79.651,-71.899,-82.031
-0.723,1.125,1.427,74.768,-85.144,-68.542
-0.780,1.101,1.269,72.571,-99.304,-53.345
-0.844,1.064,1.047,72.510,-110.840,-39.001
-0.836,1.000,0.826,72.510,-116.455,-26.672
-0.848,0.877,0.621,73.730,-116.211,-15.320
-0.872,0.743,0.463,75.439,-112.244,-9.766
-0.904,0.671,0.386,71.228,-104.004,-9.216
-0.951,0.602,0.336,71.472,-93.018,-8.118
-0.988,0.576,0.312,77.698,-80.505,-8.545
-1.006,0.590,0.286,80.078,-70.984,-7.996
-1.024,0.615,0.261,78.918,-65.918,-4.578
-0.974,0.645,0.196,74.280,-62.805,1.404
-0.932,0.661,0.120,70.007,-60.730,9.766
-0.857,0.717,0.020,65.491,-57.739,19.531
-0.799,0.748,-0.111,67.139,-51.758,33.264
-0.844,0.682,-0.254,73.303,-38.269,46.997
-0.588,0.772,-0.295,64.575,-8.240,51.147
-0.530,0.708,-0.221,65.063,12.573,72.449
-0.445,0.522,-0.154,70.129,19.043,91.187
-0.295,0.359,-0.080,53.833,27.527,99.121
-0.209,0.242,0.008,30.273,32.532,102.844
-0.114,0.171,0.067,11.169,34.058,101.990
-0.008,0.135,0.086,2.808,35.278,97.229
0.091,0.109,0.128,3.296,38.330,90.149
0.248,0.123,0.205,9.460,44.678,79.346
0.426,0.162,0.310,20.447,54.138,67.505
0.601,0.227,0.450,32.349,65.369,58.655
0.722,0.260,0.621,41.016,76.904,53.284
0.779,0.236,0.838,40.955,88.440,52.979
0.869,0.191,1.045,28.259,93.750,56.641
0.874,0.086,1.200,6.836,85.327,62.988
0.919,-0.008,1.214,-17.151,62.622,67.017
0.952,-0.071,1.084,-40.894,32.043,65.979
0.940,-0.091,0.930,-64.148,6.775,61.646
0.962,-0.071,0.802,-74.768,-0.305,55.115
0.986,-0.032,0.703,-64.453,5.310,44.067
0.981,-0.036,0.713,-42.847,20.569,32.593
1.018,-0.055,0.868,-24.475,41.382,20.996
0.958,-0.110,1.111,-10.620,56.458,7.996
0.963,-0.127,1.292,-5.554,59.875,-4.700
0.937,-0.112,1.352,-8.179,48.584,-15.198
0.933,-0.079,1.272,-13.428,31.799,-25.208
0.858,-0.043,1.200,-21.484,18.616,-34.119
0.817,-0.014,1.154,-26.367,13.062,-39.917
0.717,0.011,1.146,-28.137,10.681,-45.593
0.647,-0.002,1.146,-28.259,10.742,-48.706
0.551,-0.048,1.247,-28.137,14.221,-53.589
0.480,-0.042,1.378,-31.677,14.099,-62.561
0.409,0.064,1.533,-34.363,6.226,-72.937
0.303,0.189,1.581,-34.363,-5.737,-83.191
0.203,0.346,1.598,-32.837,-17.395,-92.651
0.054,0.473,1.582,-24.719,-28.625,-99.731
-0.078,0.607,1.527,-14.465,-38.452,-104.370
-0.207,0.722,1.522,-6.653,-44.006,-104.492
-0.300,0.771,1.595,1.404,-43.762,-101.379
-0.362,0.749,1.731,10.132,-42.419,-94.604
-0.406,0.743,1.825,11.169,-47.302,-87.341
-0.465,0.770,1.771,9.338,-60.181,-81.238
-0.562,0.820,1.622,9.583,-75.256,-76.599
-0.670,0.932,1.454,14.343,-84.778,-73.486
-0.791,1.031,1.288,28.198,-88.013,-70.007
-0.869,1.141,1.141,46.326,-86.365,-63.782
-0.929,1.167,1.066,60.242,-80.994,-52.917
-0.946,1.127,1.067,68.298,-72.571,-36.987
-0.917,0.982,1.079,70.251,-67.993,-18.494
-0.872,0.827,1.062,63.049,-68.787,-1.465
-0.862,0.740,0.987,51.697,-74.097,11.719
-0.786,0.669,0.863,44.922,-77.820,20.874
-0.773,0.610,0.764,46.814,-75.562,26.489
-0.755,0.573,0.701,55.176,-67.993,27.954
-0.695,0.561,0.654,67.749,-58.960,28.442
-0.645,0.581,0.610,80.322,-51.453,28.687
-0.600,0.561,0.601,90.393,-43.579,32.593
-0.569,0.506,0.594,92.529,-36.377,40.405
-0.514,0.442,0.585,88.135,-32.043,49.866
-0.475,0.343,0.566,76.782,-29.297,57.556
-0.438,0.279,0.536,64.209,-27.893,63.538
-0.382,0.232,0.493,53.406,-25.879,66.467
-0.352,0.196,0.455,44.983,-22.766,66.589
-0.318,0.181,0.395,38.696,-18.677,64.941
-0.324,0.191,0.322,34.607,-14.221,62.439
-0.261,0.248,0.226,33.630,-7.019,60.242
-0.241,0.304,0.181,39.917,4.333,60.242
-0.203,0.313,0.198,48.584,21.240,62.622
-0.153,0.297,0.283,50.171,38.391,64.941
-0.070,0.274,0.366,46.448,50.537,69.214
0.020,0.241,0.428,41.992,56.946,72.876
0.116,0.143,0.536,35.767,62.256,76.599
0.206,0.041,0.645,26.917,65.613,78.186
0.270,-0.045,0.716,20.081,64.087,75.562
0.293,-0.088,0.758,17.456,60.059,69.885
0.284,-0.121,0.759,18.921,55.359,62.988
0.288,-0.138,0.722,22.644,50.476,56.702
0.283,-0.142,0.703,24.414,47.791,51.331

0.748,0.640,1.689,-115.173,80.139,-2.869
0.779,0.740,1.991,-97.412,76.843,-20.264
0.737,0.932,2.026,-79.102,59.509,-32.776
0.765,0.996,1.996,-69.580,44.312,-32.410
0.778,1.102,1.921,-75.867,22.644,-26.733
0.756,1.086,1.803,-88.013,0.000,-14.282
0.847,1.067,1.739,-104.309,-4.700,-5.249
0.879,0.995,1.781,-110.596,2.563,-3.296
0.946,0.906,1.963,-107.300,17.151,-9.033
0.996,0.829,2.161,-96.008,24.536,-21.179
0.936,0.757,2.396,-77.148,22.400,-36.743
0.899,0.730,2.577,-58.411,12.024,-52.429
0.784,0.711,2.630,-42.236,-10.498,-64.209
0.671,0.730,2.536,-30.518,-39.185,-72.144
0.542,0.824,2.360,-24.963,-65.186,-77.087
0.383,0.949,2.130,-21.545,-84.106,-78.186
0.260,1.003,1.869,-9.949,-95.825,-76.111
0.126,1.005,1.638,4.089,-98.816,-74.768
0.005,1.006,1.492,16.724,-93.323,-77.148
-0.118,0.999,1.421,32.166,-83.496,-82.581
-0.228,0.974,1.425,51.819,-73.059,-88.623
-0.328,0.963,1.479,64.636,-66.406,-92.468
-0.435,0.972,1.562,67.627,-65.735,-92.712
-0.537,0.988,1.616,68.909,-71.289,-88.928
-0.620,1.018,1.536,73.059,-84.351,-83.252
-0.693,1.047,1.355,78.125,-98.999,-75.928
-0.762,1.056,1.138,80.017,-109.558,-67.078
-0.852,1.038,0.928,80.139,-115.662,-57.495
-0.878,0.985,0.746,83.740,-114.990,-47.607
-0.926,0.920,0.569,90.332,-111.816,-39.734
-0.951,0.832,0.440,95.276,-103.333,-32.837
-0.975,0.763,0.403,94.177,-91.003,-26.367
-0.982,0.742,0.388,90.515,-80.200,-19.592
-0.967,0.759,0.336,87.646,-73.608,-10.498
-0.943,0.766,0.254,85.205,-67.749,1.099
-0.913,0.723,0.209,80.200,-60.364,14.526
-0.863,0.674,0.166,75.317,-51.331,26.978
-0.783,0.604,0.166,72.998,-41.992,38.269
-0.709,0.544,0.189,71.228,-35.583,45.776
-0.644,0.463,0.244,72.205,-30.334,50.720
-0.579,0.367,0.301,73.792,-27.100,54.321
-0.534,0.305,0.309,70.068,-27.771,55.176
-0.523,0.313,0.267,61.096,-30.945,54.199
-0.476,0.360,0.139,51.270,-33.813,54.443
-0.475,0.429,-0.035,41.321,-33.386,56.580
-0.448,0.495,-0.116,32.898,-24.414,61.768
-0.380,0.496,-0.129,26.855,-8.850,68.970
-0.300,0.460,-0.071,20.020,5.371,76.599
-0.170,0.421,0.026,8.118,18.433,81.909
-0.100,0.381,0.132,-1.770,27.649,85.938
0.016,0.294,0.248,-6.531,33.142,88.135
0.106,0.222,0.361,-10.315,35.889,88.684
0.227,0.143,0.429,-10.986,36.011,87.341
0.302,0.094,0.491,-14.648,34.485,82.703
0.374,0.068,0.560,-22.278,34.851,78.003
0.457,0.060,0.600,-27.710,34.668,72.998
0.524,0.076,0.627,-31.067,33.691,66.589
0.602,0.098,0.662,-35.400,35.095,59.692
0.637,0.130,0.734,-40.039,37.415,52.307
0.674,0.165,0.804,-42.847,38.940,44.617
0.719,0.176,0.839,-41.321,38.208,38.635
0.765,0.156,0.822,-41.077,36.316,34.424
0.810,0.145,0.831,-45.532,36.133,30.273
0.883,0.120,0.883,-47.119,39.612,25.574
0.987,0.042,0.981,-43.823,45.227,19.470
1.059,0.004,1.147,-43.823,50.476,9.277
1.075,-0.000,1.346,-44.128,51.392,-4.211
1.045,0.030,1.479,-42.969,44.434,-19.470
0.978,0.084,1.466,-41.748,30.273,-32.227
0.876,0.153,1.371,-42.786,13.489,-42.297
0.766,0.216,1.258,-42.908,2.258,-49.500
0.675,0.268,1.175,-42.236,-2.380,-54.504
0.596,0.331,1.113,-41.504,-2.197,-58.594
0.530,0.356,1.125,-41.321,1.404,-62.378
0.503,0.405,1.279,-44.250,5.066,-65.735
0.475,0.434,1.315,-43.640,3.845,-69.641
0.421,0.486,1.424,-40.161,5.310,-75.378
0.337,0.510,1.543,-31.860,6.897,-82.886
0.262,0.568,1.595,-17.334,3.113,-92.163
0.091,0.587,1.739,0.854,-1.892,-101.257
0.010,0.624,1.887,11.902,-8.301,-109.009
-0.120,0.693,1.918,13.184,-26.184,-113.464
-0.276,0.847,1.837,9.583,-46.204,-114.502
-0.401,0.964,1.686,11.902,-60.974,-112.061
-0.500,1.013,1.547,18.494,-67.871,-107.422
-0.582,1.030,1.446,24.841,-68.604,-100.586
-0.666,1.023,1.384,31.555,-66.467,-93.750
-0.742,0.983,1.395,39.673,-61.951,-86.548
-0.806,0.952,1.483,44.617,-58.228,-79.468
-0.874,0.943,1.567,48.706,-59.387,-72.998
-0.909,0.975,1.540,53.223,-68.054,-66.528
-0.957,1.006,1.440,59.265,-79.956,-57.556
-0.986,0.999,1.314,63.782,-89.661,-47.974
-1.018,1.049,1.079,70.435,-96.497,-38.635
-0.980,1.128,0.814,79.773,-98.206,-27.100
-0.975,1.196,0.555,87.402,-94.055,-15.381
-0.939,1.193,0.419,89.539,-80.139,0.793
-0.884,1.073,0.367,88.013,-62.134,20.203
-0.823,0.842,0.431,83.191,-44.678,38.513
-0.774,0.615,0.539,71.838,-29.419,52.002
-0.726,0.456,0.581,62.622,-22.095,60.181
-0.657,0.350,0.593,60.486,-18.799,63.293
-0.576,0.269,0.594,64.331,-14.954,62.012
-0.553,0.257,0.595,69.641,-12.817,57.251
-0.455,0.278,0.554,74.890,-12.085,52.551
-0.443,0.297,0.498,80.750,-13.733,49.438
-0.391,0.310,0.463,84.595,-12.695,48.706
-0.370,0.328,0.391,83.801,-11.353,49.194
-0.366,0.339,0.295,79.346,-10.315,52.917
-0.366,0.325,0.225,70.679,-5.981,58.228
-0.350,0.269,0.198,58.044,0.793,64.819
-0.316,0.198,0.209,44.067,8.118,70.984
-0.260,0.152,0.234,32.898,14.282,74.890
-0.200,0.117,0.238,24.475,18.616,76.599
-0.133,0.083,0.259,17.517,22.095,76.294
-0.067,0.054,0.208,17.456,25.879,74.341
-0.008,0.040,0.232,20.081,32.898,70.923
0.040,0.049,0.320,22.644,46.265,67.261
0.108,0.076,0.434,29.480,54.749,60.364

0.707,0.808,1.511,-119.019,48.035,-13.794
0.704,0.969,1.649,-104.980,58.960,-19.592
0.781,0.927,1.969,-85.144,68.542,-19.836
0.817,0.843,2.263,-72.998,58.960,-18.188
0.878,0.752,2.429,-78.674,36.194,-14.587
0.880,0.674,2.425,-93.506,7.874,-12.634
0.830,0.651,2.333,-106.079,-14.954,-15.808
0.794,0.681,2.225,-109.436,-28.809,-22.705
0.705,0.746,2.108,-101.807,-36.255,-33.020
0.607,0.820,2.074,-83.740,-35.828,-43.762
0.477,0.832,2.130,-63.477,-31.616,-52.979
0.381,0.817,2.224,-41.931,-29.114,-59.631
0.268,0.794,2.221,-26.306,-34.180,-65.308
0.151,0.820,2.152,-18.982,-43.213,-69.641
0.032,0.836,2.083,-13.794,-52.063,-71.472
-0.062,0.892,1.908,-10.986,-60.608,-74.280
-0.149,0.929,1.737,-1.465,-64.514,-78.369
-0.237,0.986,1.640,13.062,-57.495,-85.632
-0.315,0.999,1.615,32.593,-46.143,-93.262
-0.379,0.991,1.683,51.025,-35.522,-99.060
-0.422,1.011,1.812,62.866,-30.518,-102.051
-0.469,1.106,1.875,69.946,-36.987,-101.013
-0.517,1.209,1.786,72.571,-54.749,-92.529
-0.570,1.243,1.594,69.702,-75.623,-76.294
-0.589,1.157,1.353,65.369,-93.201,-55.847
-0.632,1.026,1.103,58.044,-104.797,-36.804
-0.675,0.862,0.866,54.810,-109.619,-23.254
-0.724,0.728,0.681,57.800,-107.300,-16.235
-0.771,0.635,0.569,64.331,-99.792,-13.550
-0.807,0.598,0.484,71.045,-90.332,-13.245
-0.851,0.626,0.441,76.050,-81.665,-13.977
-0.891,0.729,0.388,78.003,-75.073,-13.123
-0.938,0.846,0.307,77.576,-70.435,-7.629
-0.977,0.908,0.228,80.200,-64.392,1.648
-0.979,0.883,0.163,84.839,-56.213,14.404
-0.929,0.785,0.080,83.008,-48.462,28.259
-0.892,0.657,0.001,77.332,-41.992,40.344
-0.850,0.554,-0.007,68.970,-31.494,50.293
-0.800,0.469,-0.024,60.242,-22.583,57.190
-0.773,0.416,-0.038,55.725,-14.893,61.523
-0.730,0.376,-0.058,56.091,-6.226,62.439
-0.643,0.361,-0.080,57.007,2.319,60.425
-0.619,0.380,-0.051,59.387,11.169,58.655
-0.515,0.418,-0.013,60.791,19.470,58.411
-0.438,0.440,0.049,53.101,23.804,61.768
-0.318,0.436,0.079,42.358,25.085,68.481
-0.222,0.432,0.097,27.161,23.132,75.562
-0.093,0.378,0.117,12.878,23.193,84.167
0.054,0.294,0.133,0.366,24.658,89.172
0.159,0.243,0.153,-11.780,28.992,90.637
0.290,0.167,0.228,-17.151,37.476,88.684
0.405,0.110,0.326,-15.747,48.401,81.848
0.533,0.093,0.449,-9.399,57.800,71.472
0.645,0.144,0.613,-2.991,65.491,58.044
0.747,0.232,0.802,2.991,70.007,45.959
0.831,0.287,0.945,6.958,68.787,38.940
0.908,0.291,1.037,4.761,61.157,37.354
1.005,0.221,1.089,-3.113,49.744,40.710
1.080,0.121,1.130,-18.860,41.504,48.889
1.110,0.030,1.143,-38.391,32.471,51.575
1.143,-0.059,1.131,-51.636,24.109,49.011
1.099,-0.155,1.124,-59.509,18.616,40.955
1.049,-0.175,1.142,-64.148,15.381,27.466
0.990,-0.152,1.089,-58.472,10.803,10.742
0.914,-0.092,1.024,-44.556,7.080,-7.263
0.854,-0.010,1.024,-31.006,10.681,-24.109
0.804,0.056,1.061,-20.813,17.090,-36.743
0.726,0.101,1.114,-15.503,21.057,-46.021
0.693,0.168,1.144,-16.235,23.804,-54.443
0.624,0.253,1.160,-14.954,25.879,-62.683
0.609,0.325,1.264,-9.827,29.480,-72.144
0.520,0.343,1.317,-4.517,32.227,-80.322
0.480,0.381,1.486,-8.179,30.884,-86.304
0.354,0.422,1.596,-16.968,20.386,-88.928
0.303,0.459,1.758,-26.489,13.672,-90.942
0.191,0.525,1.790,-27.405,-1.770,-94.299
0.128,0.546,1.779,-19.409,-15.686,-95.764
0.028,0.625,1.735,-11.414,-28.381,-100.403
-0.046,0.714,1.641,-2.380,-40.588,-104.736
-0.152,0.785,1.539,6.836,-48.828,-106.445
-0.283,0.806,1.509,13.184,-50.598,-104.492
-0.397,0.761,1.583,17.944,-48.279,-98.999
-0.476,0.729,1.666,21.118,-48.645,-92.712
-0.540,0.754,1.706,24.109,-54.749,-87.402
-0.604,0.802,1.692,29.968,-63.660,-82.458
-0.659,0.838,1.596,38.635,-74.402,-76.172
-0.702,0.836,1.453,46.143,-83.984,-68.420
-0.750,0.815,1.277,50.903,-90.393,-59.753
-0.800,0.813,1.113,54.016,-92.773,-52.673
-0.828,0.814,0.992,59.937,-90.393,-45.898
-0.813,0.801,0.887,68.665,-85.388,-39.551
-0.826,0.790,0.791,75.806,-79.651,-33.264
-0.820,0.766,0.757,80.444,-70.923,-25.269
-0.823,0.714,0.759,79.895,-61.951,-15.625
-0.816,0.661,0.786,74.646,-54.199,-6.165
-0.787,0.647,0.760,68.359,-50.171,1.099
-0.750,0.651,0.711,65.491,-49.133,7.568
-0.716,0.654,0.661,63.660,-47.729,13.611
-0.684,0.641,0.624,62.988,-46.143,19.775
-0.665,0.595,0.619,63.843,-45.044,26.672
-0.636,0.527,0.599,62.683,-44.983,33.936
-0.635,0.491,0.502,59.814,-47.729,42.236
-0.646,0.429,0.387,61.462,-50.476,51.514
-0.619,0.409,0.292,61.279,-48.218,58.411
-0.592,0.389,0.191,58.533,-43.335,65.186
-0.482,0.380,0.080,51.636,-35.278,70.679
-0.420,0.353,0.066,41.687,-21.179,74.768
-0.325,0.321,0.174,29.175,-1.526,75.439
-0.264,0.284,0.335,17.578,16.479,75.256
-0.221,0.267,0.429,15.137,25.024,74.036
-0.198,0.259,0.463,20.630,27.588,70.679
-0.156,0.211,0.484,28.931,30.518,68.176
-0.091,0.155,0.485,35.583,33.447,66.284
0.001,0.147,0.458,36.438,34.851,64.514
0.104,0.158,0.446,32.715,37.781,63.599
0.168,0.144,0.478,28.870,45.349,65.063
0.228,0.093,0.573,26.489,55.237,66.345
0.268,0.045,0.675,24.109,63.049,65.735
0.295,0.001,0.783,19.409,65.063,64.392
