aX,aY,aZ,gX,gY,gZ
0.057,0.921,-1.995,41.931,43.457,25.574
-0.018,0.850,-2.162,75.806,40.649,11.108
-0.093,0.627,-2.256,112.488,27.283,-10.864
-0.162,0.362,-2.297,136.292,7.263,-31.677
-0.226,0.118,-2.365,142.273,-7.996,-43.640
-0.295,0.044,-2.482,138.550,-11.353,-42.419
-0.399,0.129,-2.635,146.118,-0.610,-36.255
-0.483,0.256,-2.740,173.828,14.099,-38.757
-0.497,0.333,-2.696,220.093,19.226,-60.059
-0.471,0.065,-2.543,266.724,0.793,-102.173
-0.387,-0.383,-2.358,295.776,-33.264,-142.273
-0.285,-0.430,-2.071,295.227,-68.359,-156.372
-0.109,-0.544,-1.756,287.048,-97.168,-157.654
0.016,-0.579,-1.470,276.794,-114.075,-150.024
0.136,-0.377,-1.178,268.982,-114.258,-129.028
0.287,-0.319,-0.847,277.283,-106.262,-113.403
0.462,-0.256,-0.435,294.250,-102.478,-105.591
0.678,-0.490,0.136,317.871,-117.188,-111.572
0.789,-0.689,0.983,335.632,-152.893,-121.948
0.682,-0.635,1.838,310.059,-208.496,-124.695
0.697,-0.323,2.440,234.680,-252.563,-127.869
0.844,-0.078,2.814,167.725,-234.619,-108.765
0.936,0.172,2.920,134.399,-141.541,-39.368
0.983,0.440,2.723,121.155,-24.780,43.640
1.016,0.563,2.378,109.436,45.410,93.079
1.060,0.544,2.193,98.694,41.809,90.820
1.058,0.358,2.302,87.280,-16.479,51.270
1.003,0.137,2.592,64.880,-95.093,-2.502
0.933,-0.039,2.941,25.452,-163.452,-49.072
0.776,-0.154,3.326,-25.330,-209.290,-80.383
0.604,-0.265,3.507,-77.454,-207.947,-82.825
0.511,-0.213,3.266,-121.033,-139.282,-48.828
0.427,0.055,2.625,-154.297,-38.574,1.953
0.465,0.538,1.865,-172.363,38.513,39.856
0.418,0.959,1.138,-177.002,69.885,42.908
0.435,1.042,0.705,-165.833,46.570,8.545
0.412,1.118,0.580,-153.625,1.282,-33.691
0.390,1.124,0.585,-141.785,-32.715,-70.496
0.539,0.752,0.666,-125.183,-39.001,-95.703
0.739,0.341,0.723,-128.052,-30.762,-94.421
0.717,0.418,0.689,-159.851,-26.245,-61.340
0.610,0.455,0.556,-179.626,-3.601,-23.071
0.561,0.384,0.348,-179.626,41.748,11.658
0.488,0.502,0.033,-181.641,79.834,42.908
0.377,0.711,-0.316,-180.664,93.567,56.702
0.274,0.871,-0.560,-166.565,86.426,46.204
0.175,0.927,-0.636,-142.456,63.965,17.395
0.093,0.773,-0.628,-116.394,46.143,-15.137
0.130,0.457,-0.602,-98.145,51.514,-36.194
0.347,0.031,-0.641,-98.389,67.566,-36.377
0.385,0.195,-0.666,-124.878,56.946,-11.719
0.363,0.319,-0.667,-151.550,30.884,6.409
0.329,0.302,-0.592,-164.551,9.827,7.751
0.279,0.251,-0.535,-172.668,2.258,6.714
0.256,0.231,-0.525,-176.392,9.277,7.690
0.233,0.278,-0.573,-173.462,23.071,9.094
0.184,0.404,-0.650,-163.208,38.452,8.972
0.147,0.459,-0.677,-142.700,55.054,3.174
0.130,0.418,-0.675,-120.056,76.050,-4.639
0.201,0.232,-0.716,-103.821,102.173,-8.667
0.425,-0.026,-0.814,-99.487,119.202,-7.996
0.638,-0.080,-0.923,-114.319,103.149,-0.061
0.685,0.110,-0.987,-140.015,55.725,7.874
0.651,0.199,-0.997,-152.100,17.883,5.676
0.643,0.187,-0.978,-145.813,8.545,5.554
0.593,0.151,-0.999,-134.705,16.907,12.634
0.490,0.199,-1.102,-125.366,34.729,25.696
0.426,0.359,-1.262,-113.525,58.960,41.199
0.399,0.531,-1.410,-96.191,74.036,48.157
0.405,0.669,-1.452,-73.425,71.289,44.006
0.359,0.619,-1.381,-51.941,53.650,27.832
0.583,0.590,-1.270,-40.466,29.907,9.521
0.563,0.332,-1.077,-39.978,3.296,-14.465
0.629,0.305,-0.939,-50.415,-23.010,-21.545
0.530,0.346,-0.858,-63.110,-35.583,-14.160
0.428,0.429,-0.844,-62.927,-21.179,1.221
0.353,0.508,-0.915,-55.359,12.695,21.362
0.359,0.591,-1.042,-49.377,42.419,32.593
0.398,0.673,-1.160,-46.143,52.063,31.921
0.461,0.709,-1.240,-41.809,44.312,21.667
0.505,0.688,-1.248,-34.363,28.748,6.104
0.512,0.646,-1.183,-25.330,12.329,-5.798
0.519,0.602,-1.056,-16.418,-1.587,-14.709
0.525,0.548,-0.922,-10.925,-10.193,-20.447
0.553,0.507,-0.787,-9.094,-15.015,-23.071
0.560,0.458,-0.656,-7.141,-15.076,-21.851
0.613,0.426,-0.617,-6.714,-9.888,-13.672
0.614,0.441,-0.595,-6.104,-0.488,-1.343
0.576,0.469,-0.635,-8.911,11.169,11.536
0.551,0.509,-0.691,-11.536,20.569,20.081
0.520,0.543,-0.746,-12.939,25.757,24.353
0.502,0.574,-0.787,-13.245,27.527,25.146
0.482,0.590,-0.825,-12.756,25.269,22.400
0.460,0.610,-0.846,-11.169,18.738,17.578
0.452,0.612,-0.832,-8.362,10.864,10.742
0.460,0.579,-0.804,-5.981,4.517,3.174
0.494,0.549,-0.772,-5.066,0.854,-2.502
0.528,0.509,-0.738,-3.967,-0.610,-4.883
0.553,0.473,-0.692,-2.747,-1.587,-4.822
0.545,0.460,-0.650,-3.967,-2.441,-2.563
0.517,0.460,-0.630,-6.592,-1.648,0.977
0.490,0.470,-0.650,-8.850,3.174,5.371
0.464,0.496,-0.702,-10.925,10.132,9.949
0.458,0.527,-0.758,-11.780,14.771,11.963
0.455,0.552,-0.806,-10.986,15.259,10.681
0.484,0.580,-0.824,-8.118,11.597,8.240
0.463,0.557,-0.826,-5.005,5.920,3.418
0.500,0.537,-0.812,-3.845,1.038,0.366
0.522,0.495,-0.795,-3.418,-0.916,-2.869
0.536,0.484,-0.775,-5.554,-2.014,-1.282
0.516,0.488,-0.767,-7.935,-1.953,2.258
0.489,0.500,-0.767,-8.728,0.732,7.263
0.455,0.521,-0.788,-8.484,5.554,12.207
0.440,0.551,-0.821,-7.629,9.583,14.465
0.425,0.569,-0.851,-5.127,11.169,13.184
0.434,0.595,-0.863,-3.296,8.545,10.925
0.414,0.587,-0.860,-0.305,4.272,6.775
0.441,0.579,-0.840,2.075,-0.305,0.610
0.454,0.551,-0.814,3.601,-2.625,-2.930

0.174,0.627,-1.965,80.994,51.025,35.828
0.167,0.569,-2.005,105.164,44.434,21.484
0.171,0.411,-1.976,126.831,20.935,-1.404
0.182,0.240,-1.862,142.822,-8.301,-24.231
0.176,0.053,-1.753,152.222,-32.654,-38.025
0.139,-0.073,-1.735,154.419,-39.246,-37.048
0.078,-0.118,-1.855,154.602,-23.437,-23.132
0.018,-0.108,-2.043,157.776,3.113,-7.202
-0.030,0.028,-2.194,172.058,29.602,3.174
-0.039,0.189,-2.294,197.632,46.814,4.089
0.016,0.245,-2.218,235.718,43.030,-9.460
0.096,0.094,-1.975,270.508,5.493,-39.551
0.134,-0.167,-1.588,283.508,-61.768,-74.890
0.154,-0.329,-1.213,273.499,-129.089,-96.313
0.138,-0.496,-0.923,256.287,-170.959,-99.792
0.135,-0.416,-0.723,238.464,-170.227,-80.627
0.157,-0.234,-0.517,228.455,-140.503,-52.429
0.158,-0.093,-0.359,229.065,-111.084,-34.973
0.150,0.046,-0.186,235.962,-87.097,-27.039
0.141,0.081,0.080,250.977,-68.665,-23.682
0.106,0.058,0.375,257.935,-58.655,-23.437
0.086,0.309,0.697,246.277,-53.650,-24.780
0.112,0.558,0.995,228.577,-44.128,-29.724
0.323,0.713,1.247,210.205,-22.888,-35.278
0.606,0.761,1.438,185.669,1.892,-36.560
0.924,0.768,1.592,167.969,31.860,-32.166
1.386,0.625,1.817,173.035,57.556,-28.687
2.009,0.273,2.310,197.144,48.096,-34.546
2.474,-0.190,3.141,214.966,-24.658,-46.936
2.378,-0.818,3.896,204.224,-146.240,-67.383
1.727,-1.241,4.000,125.916,-279.663,-85.266
0.939,-0.991,4.000,1.648,-339.661,-74.951
0.347,-0.399,3.618,-90.698,-257.568,-30.212
0.020,0.028,2.712,-124.878,-97.839,21.729
0.075,0.564,1.888,-151.428,15.076,53.467
0.092,0.982,1.307,-174.500,45.715,45.715
0.218,1.140,1.018,-177.734,5.371,9.705
0.230,1.180,0.953,-174.072,-47.363,-20.325
0.273,1.133,0.929,-166.931,-78.796,-43.030
0.352,1.098,0.862,-161.255,-79.102,-57.556
0.429,1.101,0.810,-149.292,-60.486,-63.782
0.559,0.885,0.807,-128.601,-33.813,-68.665
0.710,0.569,0.787,-118.164,-5.859,-67.383
0.796,0.500,0.761,-125.427,9.521,-54.138
0.791,0.583,0.722,-135.559,18.250,-32.532
0.714,0.623,0.639,-138.550,32.715,-13.489
0.604,0.677,0.466,-135.925,53.894,0.183
0.520,0.777,0.222,-128.479,74.158,7.568
0.432,0.815,-0.016,-114.014,85.693,4.395
0.342,0.757,-0.154,-89.844,88.684,-5.432
0.282,0.531,-0.221,-59.265,98.999,-14.038
0.364,0.066,-0.260,-40.649,119.446,-10.193
0.436,-0.118,-0.302,-62.866,121.216,11.414
0.412,0.027,-0.455,-121.521,89.417,35.645
0.392,0.172,-0.559,-175.110,37.964,36.377
0.365,0.210,-0.563,-202.698,-8.911,22.644
0.311,0.207,-0.508,-209.045,-33.142,12.634
0.243,0.206,-0.485,-207.153,-35.400,6.348
0.130,0.194,-0.560,-197.205,-16.724,1.709
0.010,0.224,-0.646,-172.119,23.132,1.770
-0.046,0.268,-0.747,-140.320,76.172,0.183
0.003,0.168,-0.884,-112.793,123.108,-5.981
0.172,0.000,-1.015,-92.468,145.996,-12.634
0.391,-0.163,-1.067,-91.797,129.700,-15.320
0.503,-0.088,-1.061,-120.789,73.303,-19.592
0.551,0.000,-1.023,-153.564,6.897,-33.875
0.540,-0.032,-0.946,-164.368,-28.503,-45.349
0.503,-0.006,-0.942,-160.339,-19.226,-35.522
0.482,0.101,-1.034,-148.560,20.142,-11.963
0.502,0.256,-1.201,-132.263,61.218,9.827
0.558,0.396,-1.352,-113.281,80.200,18.860
0.614,0.470,-1.387,-93.872,68.665,11.536
0.653,0.484,-1.295,-73.486,39.307,-5.066
0.649,0.443,-1.135,-56.580,10.986,-21.545
0.665,0.287,-0.986,-46.143,-3.845,-32.104
0.646,0.180,-0.884,-45.715,-5.676,-27.832
0.563,0.304,-0.902,-56.885,3.662,-7.812
0.493,0.468,-1.031,-66.223,25.818,13.062
0.494,0.589,-1.179,-59.509,49.194,26.245
0.521,0.666,-1.277,-45.776,59.509,30.579
0.547,0.703,-1.308,-32.654,51.880,24.414
0.565,0.701,-1.254,-20.813,31.921,10.742
0.566,0.668,-1.099,-10.010,9.888,-3.479
0.505,0.579,-0.990,-3.296,-2.808,-12.268
0.609,0.543,-0.866,-0.122,-11.536,-25.574
0.525,0.477,-0.771,-8.484,-14.038,-23.560
0.524,0.494,-0.756,-16.968,-3.601,-11.658
0.509,0.548,-0.825,-20.935,17.639,3.540
0.500,0.606,-0.941,-22.766,40.222,20.203
0.533,0.710,-1.014,-18.982,53.101,27.893
0.521,0.752,-1.059,-12.207,53.650,27.954
0.546,0.775,-1.055,-2.075,43.396,20.020
0.577,0.773,-0.987,7.080,25.513,7.874
0.610,0.692,-0.885,14.099,6.226,-7.019
0.648,0.606,-0.768,16.235,-10.437,-20.508
0.670,0.503,-0.652,13.794,-22.583,-27.832
0.671,0.442,-0.549,8.972,-26.428,-26.123
0.655,0.427,-0.497,2.502,-19.470,-15.991
0.649,0.434,-0.506,-2.441,-4.944,-3.296
0.642,0.461,-0.555,-4.517,10.315,10.010
0.625,0.503,-0.619,-5.798,20.386,19.531
0.605,0.543,-0.691,-6.042,24.292,23.621
0.587,0.579,-0.755,-4.578,24.231,23.254
0.571,0.614,-0.799,-2.136,20.264,19.592
0.555,0.620,-0.807,1.770,13.062,12.878
0.549,0.591,-0.779,4.578,3.662,4.272
0.548,0.542,-0.737,5.188,-3.784,-2.625
0.544,0.504,-0.700,3.723,-7.080,-4.822
0.538,0.478,-0.680,0.671,-6.226,-2.930
0.521,0.485,-0.673,-2.319,-2.441,2.686
0.511,0.500,-0.680,-3.052,3.296,9.338
0.501,0.515,-0.688,-1.160,9.216,14.709
0.492,0.541,-0.679,0.549,11.719,17.456
0.480,0.551,-0.670,0.732,10.254,15.808
0.472,0.554,-0.676,0.366,5.981,10.742
0.495,0.546,-0.677,1.282,0.854,4.517
0.520,0.529,-0.679,2.136,-3.052,-1.282
0.548,0.499,-0.675,1.038,-5.859,-5.432
0.563,0.470,-0.658,0.305,-6.531,-6.226

0.876,0.065,2.307,178.711,7.812,20.203
1.016,-0.090,2.737,181.641,-2.991,22.522
0.886,-0.370,3.227,178.772,-51.392,10.681
0.599,-0.617,3.578,135.315,-118.713,-15.442
0.378,-0.557,3.506,39.001,-167.725,-42.603
0.262,-0.217,3.069,-55.725,-161.194,-46.265
0.189,0.141,2.427,-105.286,-91.736,-18.066
0.176,0.505,1.746,-116.333,2.625,22.766
0.144,0.799,1.145,-119.263,65.063,46.204
0.256,1.080,0.652,-122.559,79.895,48.462
0.268,1.182,0.438,-112.854,73.425,39.063
0.278,1.188,0.453,-100.342,43.396,16.113
0.304,1.156,0.606,-96.375,3.357,-9.888
0.330,1.094,0.788,-94.666,-29.419,-34.058
0.337,1.030,0.972,-91.309,-39.978,-48.157
0.367,0.935,1.117,-83.069,-28.259,-51.636
0.411,0.832,1.184,-75.928,-3.113,-47.729
0.451,0.794,1.187,-70.862,26.123,-41.321
0.473,0.756,1.119,-69.031,54.443,-34.668
0.506,0.731,1.028,-66.650,81.116,-30.457
0.505,0.681,0.894,-67.261,104.065,-25.940
0.547,0.578,0.746,-68.542,121.399,-19.470
0.561,0.544,0.588,-77.271,127.136,-7.690
0.540,0.619,0.442,-92.529,119.202,4.089
0.521,0.654,0.341,-106.506,101.685,5.859
0.522,0.638,0.270,-115.417,83.801,-0.244
0.517,0.614,0.222,-118.408,71.777,-4.395
0.483,0.568,0.188,-117.310,66.650,-5.188
0.428,0.536,0.140,-113.464,70.190,-4.211
0.342,0.531,0.073,-105.896,81.970,0.244
0.279,0.490,-0.000,-97.168,98.267,5.310
0.244,0.480,-0.063,-87.036,113.953,7.690
0.222,0.387,-0.140,-84.412,123.535,9.033
0.250,0.232,-0.194,-94.299,119.812,7.690
0.300,0.084,-0.242,-117.798,98.694,4.333
0.309,0.076,-0.267,-152.527,64.331,4.578
0.281,0.138,-0.302,-184.448,32.776,2.258
0.271,0.206,-0.320,-200.867,15.076,-3.052
0.253,0.224,-0.345,-201.416,12.878,-8.301
0.198,0.180,-0.381,-190.918,25.574,-10.620
0.132,0.128,-0.427,-174.561,51.697,-8.118
0.097,0.111,-0.506,-157.898,87.708,-2.197
0.086,0.120,-0.636,-143.799,121.582,2.319
0.150,0.106,-0.744,-130.981,139.221,0.671
0.314,-0.010,-0.809,-126.038,135.010,-9.521
0.520,-0.169,-0.837,-141.724,103.088,-23.315
0.662,-0.210,-0.802,-175.232,44.434,-36.377
0.655,-0.155,-0.786,-210.754,-11.902,-43.762
0.608,-0.119,-0.798,-223.267,-34.058,-41.260
0.512,-0.131,-0.883,-210.937,-18.372,-26.001
0.430,-0.093,-1.053,-188.171,24.170,1.648
0.411,0.017,-1.278,-168.518,73.486,29.846
0.474,0.157,-1.500,-152.832,105.591,44.312
0.575,0.280,-1.661,-139.709,111.023,43.579
0.686,0.374,-1.705,-124.573,91.003,32.227
0.730,0.360,-1.642,-108.521,55.603,15.625
0.675,0.302,-1.516,-96.985,19.775,4.639
0.528,0.384,-1.425,-94.604,-2.136,6.897
0.365,0.546,-1.431,-92.773,-1.160,15.930
0.283,0.701,-1.513,-83.191,18.616,24.414
0.315,0.798,-1.611,-64.087,40.222,25.696
0.403,0.822,-1.652,-41.016,45.959,17.090
0.490,0.773,-1.566,-17.944,31.921,0.244
0.575,0.675,-1.385,-0.122,8.118,-18.311
0.643,0.570,-1.189,10.315,-11.169,-29.724
0.689,0.497,-1.009,15.320,-21.362,-30.640
0.690,0.467,-0.859,16.052,-24.475,-24.414
0.660,0.473,-0.749,13.916,-20.691,-14.099
0.648,0.488,-0.713,11.719,-10.193,-3.174
0.506,0.477,-0.630,11.047,0.244,0.427
0.604,0.578,-0.729,6.714,10.559,14.832
0.594,0.561,-0.719,11.597,20.752,11.902
0.626,0.542,-0.737,9.888,18.311,6.470
0.655,0.535,-0.722,7.446,11.414,3.662
0.662,0.519,-0.686,7.751,5.981,1.099
0.656,0.500,-0.658,6.653,4.578,1.953
0.650,0.485,-0.642,4.150,4.456,3.601
0.604,0.490,-0.639,1.587,4.578,5.615
0.559,0.513,-0.664,0.122,7.690,10.681
0.526,0.535,-0.691,-0.488,12.207,13.306
0.510,0.558,-0.728,-1.587,15.808,13.611
0.514,0.568,-0.762,-2.441,17.273,11.047
0.524,0.566,-0.784,-3.174,14.099,6.104
0.528,0.557,-0.789,-3.967,6.775,0.305
0.537,0.522,-0.772,-4.456,-0.610,-4.883
0.551,0.483,-0.743,-4.822,-4.700,-7.080
0.562,0.451,-0.723,-6.409,-5.798,-6.042
0.559,0.438,-0.705,-7.812,-5.554,-3.723
0.535,0.436,-0.698,-8.667,-4.639,-0.122
0.513,0.436,-0.697,-7.935,-2.869,3.540
0.500,0.449,-0.698,-6.226,0.366,7.324
0.483,0.457,-0.709,-4.639,4.456,10.742
0.473,0.477,-0.732,-4.089,7.629,12.024
0.465,0.499,-0.757,-3.845,8.240,10.925
0.468,0.511,-0.776,-3.662,7.080,7.751
0.486,0.504,-0.783,-2.991,4.333,3.357
0.513,0.485,-0.783,-2.563,1.709,-0.305
0.538,0.464,-0.783,-2.686,-0.183,-2.563
0.553,0.456,-0.774,-1.953,-1.221,-3.357
0.563,0.431,-0.750,0.671,-1.465,-3.052
0.563,0.419,-0.720,3.113,-0.916,-0.854
0.540,0.426,-0.690,3.723,-0.916,2.625
0.503,0.436,-0.678,2.502,0.244,6.348
0.475,0.464,-0.700,1.038,4.272,10.559
0.461,0.492,-0.737,0.549,9.644,14.648
0.463,0.526,-0.773,1.770,14.343,17.395
0.466,0.546,-0.805,3.723,16.235,17.700
0.476,0.553,-0.824,4.822,13.611,14.465
0.492,0.543,-0.825,4.395,6.836,8.118
0.505,0.525,-0.812,3.235,-0.671,1.465
0.517,0.499,-0.797,2.380,-4.761,-2.625
0.530,0.487,-0.786,2.991,-5.676,-4.211
0.534,0.483,-0.784,3.906,-4.578,-3.235
0.535,0.484,-0.774,5.371,-2.808,-1.221
0.534,0.489,-0.755,7.507,-1.038,0.427
0.527,0.487,-0.735,9.521,0.610,2.075
0.519,0.489,-0.723,10.010,1.465,3.113
0.507,0.489,-0.722,9.155,1.099,2.747
0.506,0.492,-0.727,8.179,0.793,1.770

1.059,-0.158,2.251,197.571,-100.098,-1.953
1.060,-0.402,2.775,180.542,-147.339,-10.620
0.896,-0.693,3.265,153.259,-195.679,-18.860
0.641,-0.913,3.567,98.450,-230.347,-21.118
0.444,-0.792,3.499,25.452,-216.309,-10.315
0.351,-0.452,3.023,-39.307,-144.714,15.686
0.169,-0.160,2.371,-79.224,-47.363,45.349
0.323,0.339,1.586,-106.628,34.973,76.660
0.261,0.656,1.023,-113.403,82.520,82.092
0.347,0.851,0.624,-116.211,71.472,56.885
0.394,0.907,0.465,-116.516,30.396,23.804
0.419,0.920,0.478,-109.741,-11.047,-3.113
0.448,0.920,0.562,-100.647,-35.950,-19.348
0.485,0.876,0.680,-89.600,-44.189,-28.564
0.514,0.802,0.786,-79.834,-41.199,-30.334
0.515,0.747,0.852,-73.853,-31.677,-25.513
0.494,0.703,0.883,-70.313,-20.386,-18.311
0.451,0.669,0.914,-67.993,-9.705,-13.489
0.405,0.618,0.919,-66.711,-0.244,-13.000
0.373,0.597,0.919,-67.566,7.568,-16.357
0.355,0.586,0.894,-70.618,13.794,-20.569
0.344,0.536,0.863,-75.378,19.226,-24.658
0.370,0.465,0.826,-82.458,24.841,-27.649
0.393,0.393,0.772,-93.689,31.006,-25.208
0.396,0.392,0.703,-106.323,39.307,-16.296
0.391,0.426,0.615,-116.089,51.025,-6.409
0.384,0.466,0.510,-119.202,65.918,2.197
0.363,0.523,0.385,-117.065,79.468,10.254
0.352,0.567,0.276,-111.694,85.999,11.536
0.344,0.582,0.204,-104.248,86.182,6.653
0.323,0.588,0.155,-95.032,85.205,0.427
0.324,0.569,0.130,-83.679,85.449,-5.127
0.325,0.489,0.128,-75.684,87.219,-11.841
0.365,0.336,0.139,-78.003,89.355,-15.686
0.386,0.242,0.122,-95.825,86.487,-12.207
0.367,0.204,0.078,-120.056,80.322,-3.113
0.345,0.285,0.001,-141.541,81.543,11.230
0.283,0.400,-0.100,-154.785,92.896,28.503
0.249,0.503,-0.215,-155.762,108.215,39.551
0.258,0.606,-0.352,-151.550,116.882,39.856
0.304,0.672,-0.456,-143.677,111.023,31.555
0.356,0.691,-0.492,-135.437,90.454,14.771
0.402,0.662,-0.450,-128.723,60.425,-7.996
0.433,0.579,-0.364,-123.108,31.494,-30.151
0.463,0.425,-0.270,-120.239,14.526,-44.373
0.467,0.297,-0.214,-124.207,14.160,-45.715
0.469,0.231,-0.209,-130.798,26.978,-38.391
0.492,0.187,-0.264,-135.193,49.988,-25.146
0.489,0.204,-0.372,-138.184,77.515,-5.493
0.485,0.278,-0.504,-136.841,104.614,14.771
0.499,0.390,-0.648,-132.141,123.169,28.931
0.533,0.499,-0.761,-124.817,125.549,32.776
0.583,0.564,-0.810,-117.920,109.070,24.719
0.634,0.551,-0.795,-113.586,75.256,6.775
0.645,0.485,-0.723,-109.802,36.438,-13.123
0.628,0.390,-0.616,-106.628,10.071,-27.344
0.605,0.265,-0.555,-107.666,6.042,-29.785
0.590,0.166,-0.561,-111.511,19.287,-21.851
0.579,0.170,-0.620,-115.051,38.269,-5.676
0.532,0.258,-0.753,-118.774,60.120,16.541
0.514,0.386,-0.883,-116.089,79.895,35.095
0.531,0.497,-1.003,-108.643,88.989,43.640
0.568,0.576,-1.076,-99.731,82.825,42.175
0.614,0.595,-1.090,-91.980,60.730,31.311
0.651,0.569,-1.035,-86.914,27.344,14.587
0.669,0.514,-0.938,-84.656,-6.042,-2.563
0.643,0.435,-0.825,-83.130,-30.457,-14.893
0.575,0.366,-0.719,-79.407,-35.950,-16.602
0.482,0.314,-0.671,-75.134,-18.066,-5.005
0.407,0.323,-0.699,-72.571,14.771,13.428
0.371,0.423,-0.793,-73.669,46.387,30.090
0.367,0.521,-0.935,-75.500,67.871,38.452
0.494,0.623,-1.038,-73.975,74.768,36.926
0.490,0.677,-1.158,-70.374,65.369,28.259
0.455,0.635,-1.179,-68.237,49.072,14.526
0.564,0.611,-1.148,-63.171,20.325,-12.024
0.587,0.529,-1.099,-61.951,-6.165,-28.076
0.612,0.479,-1.004,-52.307,-22.522,-32.593
0.582,0.437,-0.919,-41.992,-21.362,-23.804
0.545,0.425,-0.863,-31.738,-5.493,-8.728
0.521,0.451,-0.870,-28.564,14.587,6.226
0.537,0.535,-0.922,-31.006,27.649,15.259
0.527,0.577,-0.968,-33.508,31.006,15.625
0.542,0.595,-0.990,-32.410,28.748,15.015
0.564,0.597,-0.998,-27.649,24.353,10.986
0.587,0.584,-0.987,-23.499,18.372,6.042
0.609,0.568,-0.969,-20.264,11.353,1.038
0.623,0.541,-0.945,-17.151,4.333,-3.174
0.633,0.527,-0.908,-12.268,0.366,-4.089
0.628,0.519,-0.857,-6.104,0.793,-1.465
0.620,0.498,-0.808,-2.014,2.747,1.709
0.598,0.482,-0.780,-2.075,3.967,4.700
0.569,0.496,-0.771,-4.761,4.395,7.751
0.544,0.516,-0.779,-7.874,4.944,9.460
0.527,0.528,-0.801,-9.766,6.165,9.460
0.525,0.532,-0.816,-9.338,6.958,8.179
0.522,0.535,-0.825,-7.446,6.592,6.531
0.551,0.542,-0.827,-5.493,5.249,4.639
0.550,0.540,-0.843,-3.540,2.502,2.808
0.512,0.526,-0.827,-0.366,0.427,2.075
0.518,0.502,-0.815,2.075,-0.610,-0.061
0.536,0.475,-0.801,3.113,-1.221,-1.465
0.539,0.447,-0.775,2.869,-1.709,-0.610
0.520,0.446,-0.758,1.099,-1.770,2.441
0.498,0.467,-0.737,-0.122,-1.587,4.272
0.480,0.468,-0.732,-1.343,-0.732,4.883
0.461,0.460,-0.750,-2.625,0.854,4.272
0.465,0.480,-0.767,-1.953,1.709,3.601
0.472,0.486,-0.783,0.427,1.892,2.625
0.489,0.484,-0.781,3.723,1.282,1.587
0.497,0.471,-0.768,5.859,-0.061,-0.061
0.497,0.466,-0.750,6.897,-1.770,-0.977
0.497,0.470,-0.736,7.080,-2.380,-0.732
0.496,0.472,-0.731,6.714,-1.221,0.732
0.499,0.470,-0.737,6.226,1.160,2.197
0.501,0.459,-0.750,5.005,3.174,3.723
0.505,0.460,-0.759,3.418,3.601,4.761
0.505,0.477,-0.765,1.953,3.174,5.554
0.507,0.485,-0.765,1.404,2.380,5.249

0.530,0.616,-1.427,56.763,-1.526,9.705
0.538,0.627,-1.474,70.496,-3.113,10.681
0.525,0.584,-1.543,82.764,-8.789,8.728
0.496,0.510,-1.628,95.276,-17.456,5.493
0.454,0.459,-1.715,108.521,-23.804,3.784
0.421,0.449,-1.764,124.451,-29.968,4.150
0.434,0.407,-1.745,143.677,-40.100,0.244
0.411,0.327,-1.691,158.752,-55.054,-5.859
0.376,0.273,-1.593,169.128,-68.481,-10.315
0.339,0.239,-1.499,179.993,-73.303,-10.376
0.283,0.224,-1.446,194.092,-64.880,-5.981
0.249,0.210,-1.445,211.975,-45.898,0.122
0.234,0.179,-1.470,231.995,-29.846,3.052
0.218,0.138,-1.504,248.047,-26.611,-0.549
0.193,0.096,-1.472,259.827,-36.316,-7.507
0.166,0.086,-1.369,268.555,-54.382,-17.456
0.144,0.054,-1.214,272.766,-81.665,-34.851
0.137,0.003,-1.048,272.034,-114.624,-56.580
0.144,-0.009,-0.844,271.729,-138.977,-72.388
0.157,-0.032,-0.668,273.071,-149.109,-78.064
0.175,-0.000,-0.549,273.376,-147.278,-76.111
0.196,0.052,-0.484,275.513,-137.695,-71.594
0.251,0.098,-0.402,281.494,-127.014,-67.871
0.279,0.096,-0.292,285.645,-127.502,-67.566
0.265,0.034,-0.162,281.677,-141.113,-72.205
0.255,0.007,-0.009,270.752,-156.311,-77.332
0.240,-0.069,0.122,259.766,-164.062,-80.078
0.246,-0.133,0.240,249.878,-159.302,-76.721
0.294,-0.132,0.364,246.948,-142.578,-63.477
0.331,-0.089,0.496,250.061,-119.995,-45.471
0.394,-0.063,0.634,254.395,-93.323,-29.968
0.480,-0.061,0.738,259.033,-65.796,-17.639
0.591,-0.071,0.864,266.663,-45.227,-7.690
0.705,-0.162,1.028,271.912,-38.635,-2.258
0.785,-0.265,1.271,268.921,-49.438,-0.427
0.800,-0.437,1.619,259.277,-77.332,-5.554
0.847,-0.682,2.180,245.300,-116.577,-20.752
0.802,-1.151,2.905,236.267,-156.799,-39.612
0.590,-1.683,3.681,215.027,-195.435,-49.561
0.347,-1.983,4.000,151.794,-227.844,-53.345
0.181,-1.736,4.000,47.180,-216.370,-44.128
0.083,-1.294,3.549,-54.199,-143.555,-16.052
0.200,-0.696,2.712,-116.821,-41.870,27.588
0.093,-0.167,1.856,-140.564,49.744,73.425
0.106,0.348,1.230,-148.926,73.425,77.087
0.113,0.628,0.912,-160.217,40.100,49.805
0.135,0.677,0.852,-158.020,-7.568,6.592
0.179,0.677,0.880,-153.137,-39.429,-24.719
0.220,0.682,0.891,-146.484,-48.889,-41.992
0.262,0.654,0.893,-137.390,-42.725,-49.561
0.332,0.579,0.899,-125.305,-27.466,-51.086
0.392,0.505,0.884,-114.868,-8.179,-45.471
0.425,0.483,0.851,-107.056,12.146,-33.875
0.436,0.485,0.813,-101.135,31.189,-21.912
0.445,0.502,0.783,-96.008,46.448,-14.648
0.447,0.504,0.755,-93.811,57.251,-10.559
0.440,0.478,0.720,-92.896,64.636,-8.545
0.443,0.454,0.718,-90.820,68.115,-8.301
0.433,0.418,0.741,-87.708,68.909,-9.705
0.427,0.377,0.763,-87.158,69.031,-11.658
0.431,0.346,0.769,-91.919,70.007,-13.245
0.431,0.267,0.747,-99.304,73.792,-11.963
0.448,0.169,0.723,-108.398,79.712,-4.578
0.400,0.179,0.669,-120.850,88.135,12.390
0.336,0.222,0.576,-133.972,100.464,31.250
0.301,0.255,0.473,-142.334,113.464,43.213
0.268,0.305,0.334,-146.729,122.253,49.561
0.264,0.400,0.175,-147.644,124.329,50.171
0.264,0.465,0.064,-144.592,118.225,43.640
0.257,0.492,0.020,-138.916,106.445,31.555
0.260,0.482,0.028,-133.545,93.994,16.724
0.274,0.411,0.059,-131.165,85.144,4.883
0.288,0.342,0.077,-135.132,81.604,1.587
0.240,0.318,0.061,-143.555,85.999,5.554
0.210,0.317,-0.002,-149.902,102.295,13.977
0.198,0.345,-0.100,-151.123,126.404,24.048
0.207,0.341,-0.206,-149.353,148.499,32.227
0.251,0.362,-0.306,-147.217,161.316,36.682
0.301,0.419,-0.435,-147.339,161.011,36.743
0.372,0.472,-0.521,-146.362,145.203,28.625
0.453,0.473,-0.534,-143.860,117.371,11.475
0.487,0.392,-0.507,-145.996,84.778,-8.545
0.495,0.301,-0.463,-150.269,57.434,-23.254
0.476,0.200,-0.421,-153.320,49.744,-27.100
0.464,0.123,-0.434,-153.625,64.819,-16.235
0.432,0.125,-0.524,-155.151,93.750,5.127
0.421,0.204,-0.670,-153.870,125.977,30.090
0.435,0.321,-0.826,-149.780,147.705,48.706
0.477,0.443,-0.959,-145.569,147.339,53.162
0.546,0.531,-1.027,-144.043,121.826,40.710
0.616,0.532,-1.000,-143.494,77.576,16.357
0.608,0.449,-0.911,-143.250,29.907,-8.362
0.543,0.354,-0.808,-142.700,0.977,-20.813
0.479,0.281,-0.765,-141.357,2.441,-16.663
0.423,0.281,-0.796,-139.160,27.283,-0.366
0.422,0.357,-0.908,-134.399,60.791,21.240
0.448,0.480,-1.049,-128.174,85.938,37.109
0.497,0.581,-1.165,-119.690,92.163,41.443
0.551,0.612,-1.203,-109.741,77.881,34.180
0.578,0.579,-1.171,-102.417,48.706,20.142
0.591,0.546,-1.066,-98.022,15.259,6.104
0.563,0.505,-0.992,-97.473,-8.850,-3.662
0.513,0.481,-0.938,-97.351,-16.724,-7.019
0.482,0.461,-0.908,-93.750,-10.254,-4.700
0.460,0.477,-0.921,-88.684,7.751,3.479
0.465,0.506,-0.982,-83.130,27.893,12.024
0.496,0.533,-1.024,-78.369,37.354,14.771
0.524,0.527,-1.038,-74.707,33.569,11.536
0.543,0.516,-0.999,-71.167,22.095,4.700
0.498,0.457,-0.970,-68.298,10.620,-0.671
0.619,0.545,-0.955,-67.078,4.944,1.892
0.502,0.518,-0.904,-64.087,9.521,2.380
0.461,0.479,-0.964,-61.829,12.146,0.671
0.284,0.396,-1.037,-60.547,17.700,5.249
0.609,0.584,-1.070,-51.208,30.273,20.020
0.498,0.582,-1.126,-38.757,39.063,25.269
0.504,0.612,-1.159,-34.180,39.246,24.536
0.539,0.622,-1.159,-31.006,31.006,17.029
0.552,0.604,-1.138,-28.870,17.273,6.409

0.388,0.553,-1.727,95.764,7.629,11.414
0.383,0.518,-1.760,114.380,2.075,7.446
0.393,0.473,-1.719,130.920,-14.099,-3.052
0.393,0.395,-1.661,142.517,-36.011,-15.747
0.396,0.324,-1.579,149.475,-58.228,-27.588
0.404,0.254,-1.478,155.945,-79.041,-35.889
0.401,0.277,-1.349,160.950,-94.482,-38.452
0.388,0.277,-1.236,166.809,-98.755,-36.621
0.391,0.217,-1.169,177.063,-88.989,-31.555
0.387,0.239,-1.152,189.087,-68.481,-19.653
0.390,0.302,-1.180,203.430,-44.128,-6.958
0.410,0.348,-1.192,219.543,-30.884,-3.540
0.424,0.302,-1.161,231.934,-37.048,-10.620
0.422,0.258,-1.079,236.877,-60.425,-24.353
0.416,0.226,-0.938,235.718,-95.337,-40.527
0.408,0.184,-0.769,228.699,-132.568,-57.129
0.384,0.114,-0.639,218.445,-156.799,-66.345
0.363,0.081,-0.576,213.684,-155.579,-60.791
0.350,0.127,-0.575,217.957,-127.380,-43.335
0.394,0.235,-0.589,230.164,-89.661,-23.682
0.385,0.281,-0.602,242.859,-69.275,-14.526
0.360,0.324,-0.597,249.695,-68.176,-16.357
0.308,0.288,-0.552,254.150,-80.261,-27.466
0.280,0.204,-0.492,253.784,-99.548,-44.983
0.276,0.145,-0.447,245.117,-117.310,-61.096
0.309,0.245,-0.383,237.183,-128.418,-67.993
0.300,0.233,-0.283,233.765,-142.029,-73.853
0.286,0.207,-0.127,233.215,-152.466,-78.247
0.278,0.185,0.010,234.802,-151.062,-74.707
0.266,0.140,0.099,240.479,-138.855,-66.162
0.262,0.139,0.172,252.319,-120.239,-53.711
0.246,0.065,0.251,266.602,-102.661,-44.189
0.270,-0.031,0.379,276.672,-89.600,-40.405
0.276,-0.132,0.502,276.428,-82.336,-37.415
0.345,-0.170,0.641,270.203,-77.881,-37.292
0.423,-0.201,0.777,260.559,-78.247,-39.063
0.512,-0.277,0.953,252.563,-84.595,-43.274
0.594,-0.408,1.194,248.657,-95.093,-45.593
0.689,-0.573,1.563,248.657,-108.398,-47.241
0.756,-0.795,2.009,243.286,-129.028,-50.293
0.729,-1.130,2.563,235.107,-155.579,-57.373
0.622,-1.680,3.195,218.872,-177.734,-61.096
0.477,-1.966,3.687,171.143,-190.857,-48.157
0.388,-1.755,3.758,87.036,-174.438,-18.677
0.125,-1.394,3.315,-6.958,-115.601,12.634
0.225,-0.874,2.560,-87.097,-31.433,52.612
0.187,-0.406,1.878,-120.422,37.598,73.608
0.202,0.018,1.302,-144.287,57.251,77.087
0.202,0.267,0.999,-155.518,38.025,61.096
0.225,0.360,0.907,-155.090,6.165,34.546
0.250,0.389,0.906,-153.320,-15.381,13.611
0.288,0.389,0.954,-149.841,-24.292,0.183
0.331,0.375,1.024,-145.264,-24.780,-7.263
0.358,0.341,1.080,-141.296,-18.555,-10.803
0.384,0.295,1.101,-139.160,-6.531,-10.681
0.395,0.257,1.096,-138.794,7.751,-8.545
0.396,0.246,1.050,-140.442,23.254,-5.615
0.398,0.246,0.992,-141.968,38.757,-1.892
0.397,0.249,0.911,-142.761,54.688,3.052
0.394,0.261,0.823,-143.555,69.031,8.362
0.395,0.293,0.738,-143.860,80.750,12.878
0.398,0.318,0.652,-143.860,89.050,15.076
0.403,0.341,0.579,-143.127,92.590,15.259
0.410,0.342,0.535,-141.785,91.431,13.184
0.405,0.321,0.515,-141.052,88.989,11.108
0.381,0.295,0.484,-142.639,91.064,11.963
0.377,0.257,0.433,-145.508,97.046,15.381
0.373,0.237,0.351,-149.292,104.614,21.423
0.358,0.224,0.280,-154.724,110.046,29.968
0.330,0.258,0.191,-161.987,114.441,40.344
0.307,0.305,0.099,-168.579,117.981,48.218
0.286,0.361,0.009,-171.387,119.385,52.490
0.280,0.430,-0.083,-171.509,117.188,51.636
0.294,0.499,-0.163,-169.312,109.924,45.044
0.300,0.518,-0.190,-163.940,98.328,34.424
0.312,0.516,-0.191,-156.860,88.440,22.583
0.314,0.487,-0.187,-150.330,83.740,13.123
0.349,0.409,-0.193,-144.897,85.999,10.742
0.352,0.346,-0.204,-142.517,93.872,15.808
0.381,0.300,-0.240,-145.813,103.760,27.161
0.390,0.364,-0.323,-155.396,111.328,41.626
0.399,0.479,-0.436,-164.001,112.244,50.781
0.429,0.562,-0.523,-165.222,104.736,49.133
0.466,0.580,-0.571,-161.377,88.135,38.086
0.489,0.534,-0.555,-155.029,66.956,23.560
0.485,0.483,-0.502,-147.522,50.964,13.000
0.446,0.455,-0.455,-139.160,49.133,10.986
0.420,0.464,-0.428,-131.287,63.049,15.442
0.404,0.464,-0.456,-124.878,85.754,22.278
0.414,0.466,-0.503,-120.361,106.567,27.893
0.480,0.439,-0.553,-121.033,115.906,30.640
0.509,0.421,-0.602,-131.287,107.300,31.433
0.543,0.434,-0.629,-146.057,84.045,27.100
0.538,0.413,-0.646,-157.715,56.274,17.761
0.508,0.370,-0.669,-160.828,39.368,11.780
0.441,0.336,-0.709,-154.114,39.917,14.954
0.382,0.377,-0.753,-141.907,55.542,27.405
0.339,0.433,-0.815,-128.479,75.378,40.527
0.304,0.476,-0.882,-119.446,87.463,46.021
0.286,0.522,-0.952,-116.455,89.233,43.945
0.317,0.552,-1.011,-117.859,82.520,35.095
0.380,0.540,-1.059,-120.911,68.848,21.484
0.472,0.478,-1.077,-121.704,50.598,8.301
0.517,0.400,-1.059,-123.169,30.396,0.427
0.471,0.378,-1.059,-125.793,16.052,1.282
0.397,0.420,-1.065,-122.986,18.250,9.644
0.355,0.468,-1.099,-112.305,34.241,20.508
0.345,0.523,-1.130,-99.976,49.683,28.870
0.353,0.563,-1.143,-90.210,53.101,29.297
0.366,0.582,-1.128,-86.609,43.213,22.461
0.378,0.573,-1.093,-86.609,25.513,11.230
0.391,0.547,-1.063,-86.975,10.071,1.221
0.407,0.517,-1.051,-85.205,3.296,-3.845
0.482,0.516,-1.054,-80.566,5.981,-3.296
0.469,0.529,-1.117,-73.792,15.747,2.991
0.357,0.487,-1.135,-67.383,30.701,10.986
0.470,0.527,-1.163,-57.251,35.095,9.766
0.510,0.617,-1.251,-47.302,39.673,17.090
0.332,0.601,-1.213,-34.851,42.603,27.344

0.837,-0.616,2.080,209.717,-104.858,-37.231
0.836,-0.823,2.564,201.477,-120.300,-37.170
0.782,-1.124,2.999,177.429,-127.014,-36.865
0.683,-1.312,3.244,125.305,-126.221,-28.809
0.587,-1.177,3.174,52.002,-113.586,-7.141
0.280,-0.905,2.798,-18.372,-78.064,16.052
0.320,-0.461,2.185,-72.693,-24.231,47.058
0.255,-0.121,1.687,-93.201,23.315,61.462
0.249,0.156,1.205,-110.535,39.551,56.519
0.259,0.353,0.876,-121.033,34.485,44.678
0.271,0.462,0.673,-119.141,22.888,31.006
0.287,0.521,0.553,-111.450,15.686,20.996
0.328,0.568,0.516,-101.807,12.268,14.709
0.384,0.573,0.561,-93.994,6.531,7.751
0.435,0.561,0.665,-89.478,-2.014,-0.122
0.449,0.552,0.761,-87.952,-6.531,-4.456
0.445,0.537,0.847,-85.876,-5.859,-6.470
0.443,0.498,0.907,-83.801,-0.854,-8.606
0.450,0.441,0.939,-82.153,7.812,-9.949
0.468,0.386,0.958,-80.750,17.456,-9.888
0.480,0.336,0.961,-81.970,24.658,-8.301
0.480,0.315,0.944,-87.219,28.992,-6.287
0.472,0.306,0.905,-93.689,32.288,-5.859
0.477,0.279,0.872,-98.816,36.255,-6.592
0.489,0.228,0.836,-105.530,40.955,-5.859
0.500,0.214,0.793,-115.662,45.471,-1.831
0.486,0.239,0.729,-125.732,50.415,5.859
0.473,0.272,0.665,-131.714,55.481,11.597
0.465,0.296,0.611,-133.606,60.547,14.709
0.455,0.316,0.563,-134.827,66.223,17.944
0.421,0.338,0.490,-135.620,74.707,22.034
0.400,0.383,0.417,-135.132,85.022,25.452
0.376,0.419,0.343,-132.812,94.604,26.978
0.372,0.457,0.266,-129.272,101.257,25.391
0.377,0.480,0.216,-125.793,101.746,21.362
0.376,0.491,0.185,-124.207,95.947,14.771
0.387,0.463,0.169,-124.084,88.318,6.409
0.439,0.349,0.190,-125.244,83.008,1.038
0.439,0.344,0.192,-135.803,79.102,6.165
0.425,0.408,0.145,-149.353,77.942,14.160
0.408,0.462,0.088,-154.846,82.947,20.691
0.391,0.488,0.030,-152.588,92.102,26.917
0.373,0.532,-0.044,-148.804,100.464,31.494
0.361,0.577,-0.114,-145.142,103.394,31.250
0.358,0.614,-0.167,-140.625,101.013,25.574
0.369,0.633,-0.195,-135.132,95.337,16.174
0.389,0.618,-0.197,-129.333,87.952,3.967
0.432,0.570,-0.183,-124.634,80.200,-8.728
0.494,0.414,-0.152,-123.596,72.083,-19.043
0.539,0.267,-0.132,-130.737,65.002,-18.860
0.491,0.229,-0.168,-145.447,63.904,-5.127
0.439,0.297,-0.242,-154.114,78.857,15.503
0.405,0.380,-0.333,-153.687,103.394,35.095
0.395,0.457,-0.434,-149.231,123.596,46.997
0.412,0.522,-0.532,-146.057,129.944,48.889
0.445,0.555,-0.598,-145.752,119.873,41.138
0.493,0.557,-0.620,-147.461,96.130,25.635
0.536,0.530,-0.607,-150.452,65.796,7.080
0.558,0.482,-0.564,-152.100,36.743,-8.789
0.554,0.393,-0.505,-151.794,17.761,-20.264
0.526,0.286,-0.460,-148.254,16.663,-23.010
0.443,0.179,-0.507,-145.203,37.537,-10.437
0.426,0.187,-0.574,-139.771,69.641,9.949
0.400,0.282,-0.694,-136.414,96.619,31.433
0.389,0.406,-0.815,-136.353,110.901,44.434
0.409,0.488,-0.906,-136.047,108.459,44.617
0.470,0.520,-0.968,-136.719,91.003,33.203
0.548,0.502,-0.997,-138.184,63.354,16.296
0.584,0.429,-0.980,-138.977,32.349,-0.488
0.569,0.343,-0.956,-137.390,10.864,-9.460
0.515,0.279,-0.965,-132.996,9.399,-7.874
0.477,0.291,-1.003,-125.122,25.879,3.479
0.474,0.353,-1.062,-115.173,48.340,17.944
0.484,0.398,-1.106,-106.995,61.218,26.917
0.501,0.427,-1.122,-101.379,59.875,29.480
0.512,0.440,-1.111,-99.915,46.753,26.855
0.515,0.436,-1.073,-99.792,28.870,21.057
0.486,0.399,-1.072,-100.281,14.893,16.968
0.491,0.369,-1.111,-98.389,11.536,16.785
0.302,0.399,-1.174,-92.407,20.203,24.292
0.284,0.504,-1.321,-86.975,40.283,37.842
0.318,0.606,-1.385,-72.510,54.260,34.546
0.136,0.511,-1.435,-60.303,53.040,28.076
0.517,0.730,-1.422,-42.908,45.105,26.794
0.420,0.662,-1.396,-28.015,34.485,18.127
0.444,0.618,-1.325,-21.912,21.729,7.324
0.490,0.580,-1.240,-19.531,7.996,-1.587
0.509,0.548,-1.162,-17.761,-1.404,-5.615
0.527,0.508,-1.105,-14.465,-4.700,-5.554
0.585,0.532,-1.033,-9.399,-4.333,-1.831
0.488,0.501,-0.982,-3.357,-1.038,5.066
0.504,0.504,-0.938,1.038,2.502,6.897
0.479,0.504,-0.904,3.296,5.310,10.193
0.475,0.516,-0.892,4.761,6.165,11.230
0.465,0.524,-0.876,4.456,5.737,9.949
0.472,0.514,-0.876,3.662,4.272,6.104
0.479,0.502,-0.878,2.258,2.136,2.808
0.480,0.497,-0.881,1.343,0.061,1.221
0.473,0.497,-0.880,0.610,-1.282,0.671
0.461,0.493,-0.880,-0.427,-2.075,0.549
0.452,0.497,-0.876,-1.282,-1.892,0.977
0.443,0.506,-0.875,-1.160,-0.916,1.648
0.439,0.510,-0.872,-0.305,0.061,1.587
0.437,0.508,-0.868,0.671,0.366,0.793
0.438,0.500,-0.862,1.953,-0.305,-0.427
0.437,0.489,-0.854,3.357,-1.831,-2.136
0.433,0.475,-0.843,4.700,-3.174,-3.113
0.434,0.462,-0.824,6.226,-4.150,-3.784
0.426,0.432,-0.800,7.263,-5.127,-4.272
0.413,0.426,-0.783,7.996,-3.967,-2.930
0.400,0.433,-0.775,8.362,-1.099,0.305
0.391,0.448,-0.775,8.301,2.197,2.563
0.386,0.453,-0.784,7.324,3.235,2.625
0.386,0.454,-0.787,5.676,1.831,1.160
0.393,0.449,-0.779,4.761,-0.916,-1.221
0.406,0.435,-0.768,4.395,-2.258,-3.235
0.420,0.423,-0.762,4.028,-1.892,-3.845
0.431,0.415,-0.764,3.235,-0.671,-3.418
0.442,0.413,-0.773,2.441,0.549,-2.930

0.320,0.588,-1.709,146.118,-19.958,-5.310
0.336,0.526,-1.646,160.217,-48.706,-24.841
0.333,0.396,-1.532,170.715,-81.970,-44.922
0.326,0.300,-1.396,178.406,-106.750,-56.702
0.338,0.215,-1.280,184.814,-115.234,-58.960
0.342,0.136,-1.199,190.002,-109.619,-52.002
0.340,0.147,-1.150,196.411,-94.421,-36.987
0.339,0.217,-1.094,206.299,-75.684,-22.644
0.333,0.291,-1.087,215.149,-57.861,-11.841
0.368,0.397,-1.028,226.807,-49.194,-9.399
0.374,0.421,-0.952,235.901,-57.251,-17.273
0.380,0.395,-0.833,239.685,-80.383,-31.860
0.369,0.342,-0.692,237.122,-111.572,-50.110
0.359,0.251,-0.562,230.530,-140.808,-67.139
0.326,0.136,-0.463,224.365,-156.433,-75.439
0.331,0.132,-0.384,223.877,-147.095,-67.810
0.342,0.159,-0.334,230.347,-123.474,-52.368
0.365,0.179,-0.310,237.732,-100.708,-39.856
0.394,0.211,-0.306,243.164,-83.496,-30.884
0.412,0.279,-0.297,246.521,-77.026,-24.780
0.414,0.294,-0.255,248.413,-85.449,-27.344
0.407,0.252,-0.167,245.850,-106.445,-38.086
0.385,0.193,-0.062,238.586,-130.249,-48.767
0.357,0.164,0.030,229.919,-145.691,-54.993
0.369,0.164,0.115,224.731,-147.400,-55.847
0.367,0.128,0.192,223.022,-142.090,-52.673
0.359,0.061,0.235,222.900,-130.676,-44.983
0.397,0.101,0.303,224.854,-110.840,-33.325
0.398,0.118,0.365,225.342,-93.567,-21.179
0.381,0.127,0.406,223.694,-83.801,-15.076
0.383,0.097,0.436,222.961,-76.050,-14.648
0.435,0.118,0.498,223.816,-69.153,-15.747
0.481,0.101,0.574,223.633,-66.895,-18.005
0.522,0.068,0.670,221.436,-69.885,-22.034
0.559,0.001,0.783,219.482,-73.853,-24.353
0.584,-0.088,0.914,218.262,-75.928,-22.949
0.626,-0.175,1.073,216.858,-76.538,-18.677
0.649,-0.321,1.224,212.585,-78.857,-11.963
0.678,-0.442,1.451,211.243,-80.811,-6.592
0.694,-0.560,1.700,205.566,-86.365,-2.930
0.669,-0.712,1.986,192.200,-97.778,-4.395
0.669,-0.862,2.270,169.434,-112.549,-11.292
0.446,-1.076,2.481,130.554,-122.559,-19.958
0.485,-0.973,2.560,74.402,-121.460,-13.672
0.346,-0.824,2.492,16.479,-101.135,-0.488
0.275,-0.609,2.244,-33.875,-67.993,3.601
0.262,-0.381,1.917,-75.256,-31.189,13.550
0.242,-0.152,1.594,-98.145,0.793,26.306
0.239,0.063,1.331,-106.018,24.597,35.828
0.256,0.210,1.137,-105.835,36.316,38.330
0.285,0.300,1.028,-103.455,34.729,32.104
0.328,0.339,0.994,-103.394,23.804,20.203
0.371,0.359,0.994,-106.689,11.292,8.179
0.398,0.362,0.990,-111.511,4.578,-0.305
0.422,0.348,1.000,-113.403,3.296,-5.188
0.444,0.316,1.027,-113.098,3.235,-8.667
0.442,0.282,1.042,-113.220,6.531,-10.071
0.444,0.247,1.053,-112.793,13.000,-8.728
0.444,0.199,1.060,-112.488,20.081,-6.714
0.438,0.166,1.065,-115.479,26.489,-4.272
0.427,0.162,1.048,-122.925,34.302,-0.671
0.414,0.172,1.000,-132.996,43.579,3.113
0.403,0.203,0.927,-142.517,53.223,6.653
0.390,0.232,0.841,-150.757,61.890,8.789
0.385,0.251,0.757,-157.104,68.542,9.644
0.375,0.267,0.682,-161.255,73.914,10.681
0.373,0.279,0.621,-161.926,79.529,12.268
0.371,0.275,0.568,-159.668,85.327,14.221
0.364,0.272,0.513,-157.654,92.407,16.907
0.361,0.267,0.463,-157.532,99.548,20.447
0.358,0.264,0.404,-160.767,105.469,24.414
0.358,0.276,0.344,-167.053,109.070,28.748
0.341,0.310,0.271,-175.354,111.389,33.752
0.322,0.352,0.194,-182.373,114.441,38.818
0.298,0.400,0.103,-184.875,118.896,42.664
0.285,0.449,0.002,-182.617,122.498,43.884
0.281,0.496,-0.094,-176.636,122.803,41.443
0.287,0.504,-0.178,-168.823,117.676,34.241
0.307,0.486,-0.244,-162.231,106.201,23.376
0.341,0.431,-0.276,-158.875,91.187,12.024
0.367,0.387,-0.298,-159.790,77.454,6.104
0.369,0.378,-0.326,-163.147,70.374,8.850
0.352,0.408,-0.363,-166.321,71.716,16.724
0.331,0.468,-0.402,-167.419,80.627,25.085
0.316,0.525,-0.451,-164.673,95.276,31.067
0.324,0.565,-0.503,-158.813,110.291,33.386
0.352,0.586,-0.562,-151.917,119.202,30.762
0.400,0.592,-0.615,-146.179,118.408,24.048
0.470,0.586,-0.641,-141.846,106.506,13.245
0.539,0.546,-0.621,-139.099,84.778,-0.183
0.602,0.460,-0.544,-139.648,58.838,-12.756
0.610,0.333,-0.488,-148.560,35.156,-18.494
0.538,0.271,-0.462,-157.471,28.320,-14.221
0.468,0.268,-0.484,-156.921,44.189,2.319
0.386,0.324,-0.577,-151.855,78.674,27.893
0.338,0.423,-0.708,-141.418,115.173,52.734
0.343,0.516,-0.839,-133.789,137.024,63.721
0.392,0.572,-0.950,-132.385,134.399,57.678
0.476,0.602,-1.004,-134.766,110.840,40.283
0.557,0.587,-1.002,-136.719,75.928,20.020
0.573,0.523,-0.958,-136.475,40.222,3.601
0.502,0.462,-0.897,-133.545,17.761,-2.930
0.436,0.418,-0.873,-128.479,17.883,1.709
0.397,0.419,-0.886,-123.474,32.043,12.390
0.382,0.452,-0.936,-120.056,46.997,21.729
0.391,0.491,-0.993,-116.882,56.335,26.367
0.430,0.535,-1.025,-113.770,57.556,26.184
0.483,0.547,-1.033,-109.985,50.537,21.912
0.530,0.535,-1.016,-106.018,37.537,16.357
0.545,0.504,-0.976,-102.844,21.851,11.108
0.504,0.471,-0.935,-100.708,9.094,8.484
0.435,0.464,-0.913,-97.839,5.859,11.047
0.386,0.467,-0.929,-93.872,13.245,17.212
0.417,0.477,-0.969,-88.867,23.865,23.376
0.327,0.524,-0.964,-84.412,31.311,27.100
0.324,0.537,-1.050,-83.069,36.255,27.405
0.424,0.542,-1.033,-78.674,29.724,13.306
0.433,0.494,-1.056,-80.933,18.066,4.517
0.456,0.486,-1.042,-74.951,11.658,3.174

0.618,-0.859,1.888,220.398,-130.859,-56.152
0.540,-1.112,2.243,202.209,-147.949,-59.143
0.535,-1.242,2.556,170.471,-152.588,-54.260
0.363,-1.271,2.768,120.361,-135.071,-39.001
0.293,-1.124,2.727,59.631,-90.393,-2.563
0.246,-0.852,2.467,6.592,-39.368,9.949
0.210,-0.561,1.990,-48.828,3.662,22.888
0.239,-0.245,1.584,-79.651,31.250,30.823
0.253,-0.001,1.245,-94.177,45.349,34.180
0.287,0.190,1.008,-98.633,50.049,31.494
0.333,0.331,0.834,-100.525,47.058,24.353
0.394,0.439,0.696,-101.929,41.382,14.404
0.459,0.521,0.588,-102.295,36.316,6.836
0.520,0.578,0.542,-97.900,32.471,1.709
0.563,0.598,0.561,-89.661,27.649,-2.930
0.583,0.563,0.628,-80.994,20.081,-6.958
0.596,0.494,0.730,-74.524,11.414,-12.451
0.609,0.417,0.825,-72.327,3.723,-18.311
0.618,0.341,0.912,-73.059,-1.831,-22.827
0.618,0.272,0.984,-75.684,-3.479,-23.682
0.618,0.207,1.023,-79.895,-0.610,-20.569
0.628,0.168,1.034,-85.815,7.141,-14.404
0.626,0.147,1.003,-93.750,18.066,-6.104
0.625,0.146,0.958,-101.990,28.198,2.563
0.621,0.155,0.891,-109.375,36.194,10.376
0.614,0.191,0.825,-115.906,41.931,18.555
0.591,0.240,0.767,-120.178,45.837,25.574
0.568,0.286,0.716,-122.864,47.913,30.151
0.536,0.333,0.670,-124.329,48.462,31.372
0.508,0.369,0.637,-123.901,47.852,29.907
0.494,0.386,0.615,-123.962,47.058,26.306
0.493,0.359,0.612,-124.634,46.387,21.790
0.485,0.331,0.617,-128.479,46.326,19.348
0.467,0.328,0.607,-135.010,49.500,19.958
0.451,0.339,0.571,-142.151,57.007,22.522
0.450,0.345,0.521,-147.827,67.322,25.940
0.448,0.350,0.464,-152.527,77.332,30.090
0.437,0.381,0.396,-155.579,85.449,34.668
0.426,0.440,0.314,-156.067,90.576,37.842
0.419,0.486,0.243,-154.724,89.539,36.011
0.402,0.513,0.192,-152.405,81.726,29.541
0.398,0.498,0.167,-150.513,70.923,20.813
0.398,0.457,0.170,-151.733,60.364,12.085
0.394,0.426,0.163,-158.569,52.246,6.042
0.387,0.396,0.136,-167.236,49.988,2.747
0.387,0.372,0.106,-172.241,54.443,2.075
0.382,0.346,0.074,-173.523,65.491,6.042
0.374,0.331,0.025,-173.462,81.055,12.756
0.369,0.322,-0.041,-172.791,97.107,21.423
0.343,0.339,-0.146,-173.584,111.084,31.616
0.325,0.380,-0.266,-174.255,120.605,41.138
0.317,0.435,-0.383,-173.157,124.451,47.241
0.330,0.481,-0.474,-172.729,120.117,46.631
0.364,0.499,-0.521,-173.584,105.957,37.659
0.406,0.459,-0.526,-175.537,85.327,22.095
0.421,0.341,-0.515,-178.711,68.787,8.179
0.415,0.270,-0.517,-180.481,68.054,7.935
0.364,0.249,-0.561,-179.077,85.144,22.766
0.297,0.268,-0.663,-173.462,113.708,44.373
0.255,0.342,-0.796,-166.992,142.212,64.941
0.255,0.432,-0.945,-162.415,157.532,75.378
0.311,0.515,-1.069,-162.170,152.039,71.106
0.399,0.575,-1.158,-162.354,126.038,54.626
0.504,0.581,-1.174,-159.973,85.083,31.799
0.547,0.514,-1.106,-153.687,39.001,8.484
0.502,0.424,-0.999,-146.301,5.371,-4.944
0.402,0.339,-0.940,-138.855,-0.244,-3.845
0.289,0.287,-0.960,-132.446,21.545,14.404
0.267,0.404,-1.003,-120.483,51.758,40.100
0.243,0.521,-1.114,-117.371,76.050,57.434
0.278,0.636,-1.207,-113.159,83.923,58.716
0.333,0.678,-1.253,-108.032,73.181,47.485
0.396,0.660,-1.243,-101.868,49.866,30.457
0.450,0.612,-1.186,-97.107,23.193,13.977
0.477,0.540,-1.112,-93.384,0.000,1.038
0.444,0.495,-1.037,-89.722,-13.489,-4.761
0.388,0.499,-0.985,-84.717,-11.597,-1.343
0.344,0.527,-0.966,-78.064,1.770,8.057
0.329,0.555,-0.974,-71.838,16.785,14.954
0.339,0.573,-1.001,-68.665,25.330,16.113
0.371,0.584,-1.029,-67.749,25.574,12.939
0.385,0.569,-1.037,-66.284,20.569,7.751
0.394,0.509,-1.060,-63.171,13.733,3.479
0.558,0.588,-1.084,-62.378,7.996,4.333
0.481,0.548,-1.024,-59.265,5.798,-0.061
0.516,0.534,-1.028,-54.138,-0.732,-6.348
0.524,0.553,-1.078,-45.593,2.563,0.977
0.371,0.534,-1.036,-32.593,11.169,11.963
0.417,0.551,-1.039,-23.743,20.447,11.230
0.433,0.560,-1.037,-20.508,21.240,8.911
0.438,0.554,-1.023,-20.020,15.015,3.967
0.460,0.547,-1.004,-19.897,6.104,-0.732
0.476,0.523,-0.990,-19.043,-0.671,-3.662
0.505,0.508,-0.987,-18.738,-3.723,-4.883
0.526,0.499,-0.983,-17.212,-4.517,-4.150
0.444,0.484,-0.956,-13.428,-2.258,1.892
0.444,0.503,-0.955,-9.033,2.197,3.540
0.445,0.511,-0.954,-6.287,3.540,4.089
0.449,0.512,-0.947,-4.272,1.709,1.770
0.447,0.502,-0.932,-1.770,-1.099,-0.244
0.452,0.493,-0.910,0.671,-2.563,-0.977
0.453,0.482,-0.888,3.174,-3.113,-1.831
0.446,0.463,-0.870,3.296,-4.150,-2.136
0.435,0.456,-0.850,1.160,-5.310,-1.404
0.414,0.460,-0.843,-0.488,-4.150,0.916
0.403,0.472,-0.846,-1.221,-1.709,3.418
0.391,0.474,-0.856,-1.404,0.793,4.578
0.388,0.474,-0.863,-0.793,1.404,4.395
0.379,0.479,-0.863,-0.122,-0.061,3.540
0.381,0.484,-0.859,0.549,-1.770,1.892
0.389,0.468,-0.856,1.709,-2.991,-0.305
0.399,0.452,-0.855,3.235,-3.723,-2.075
0.416,0.443,-0.844,6.042,-3.845,-2.991
0.429,0.428,-0.825,7.874,-4.395,-3.723
0.431,0.418,-0.800,8.179,-5.859,-3.906
0.418,0.414,-0.776,6.958,-7.690,-3.113
0.396,0.419,-0.751,5.066,-7.812,-1.343
0.378,0.426,-0.746,3.662,-4.211,1.038
0.374,0.442,-0.759,2.197,0.977,3.784

0.316,0.516,-1.719,114.685,-33.997,-7.935
0.330,0.471,-1.713,130.615,-46.143,-17.151
0.346,0.424,-1.669,145.874,-60.486,-25.513
0.343,0.375,-1.609,159.119,-73.853,-32.166
0.355,0.346,-1.548,170.288,-82.703,-33.813
0.345,0.345,-1.478,181.641,-87.097,-34.180
0.353,0.345,-1.394,194.641,-91.309,-36.316
0.362,0.308,-1.294,207.947,-98.206,-41.077
0.350,0.246,-1.186,218.811,-108.154,-45.837
0.326,0.175,-1.075,225.464,-117.249,-48.828
0.316,0.151,-1.003,228.210,-119.812,-45.959
0.319,0.203,-0.948,230.042,-116.455,-40.710
0.313,0.236,-0.899,233.704,-110.901,-37.476
0.347,0.304,-0.836,241.150,-100.220,-34.485
0.375,0.352,-0.762,251.343,-90.942,-31.067
0.391,0.385,-0.665,259.460,-90.881,-31.494
0.393,0.363,-0.566,261.414,-102.722,-39.307
0.396,0.308,-0.467,256.958,-122.742,-51.819
0.380,0.237,-0.382,248.718,-143.860,-61.707
0.362,0.188,-0.312,242.004,-158.508,-64.941
0.335,0.125,-0.267,241.638,-160.645,-59.937
0.335,0.131,-0.217,245.728,-148.987,-47.729
0.335,0.169,-0.157,252.991,-131.897,-34.363
0.357,0.206,-0.071,259.521,-119.690,-26.062
0.354,0.232,0.002,261.047,-117.065,-23.315
0.330,0.242,0.082,257.996,-124.573,-27.466
0.309,0.213,0.171,252.136,-136.719,-36.072
0.291,0.163,0.274,244.873,-147.644,-44.067
0.269,0.110,0.366,237.061,-152.100,-48.035
0.253,0.071,0.448,232.239,-147.888,-47.180
0.250,-0.033,0.492,231.323,-134.644,-40.527
0.290,-0.050,0.586,237.366,-112.427,-29.297
0.338,-0.055,0.671,245.056,-85.388,-13.428
0.370,-0.078,0.718,249.329,-61.829,1.038
0.433,-0.071,0.795,253.479,-44.312,9.949
0.484,-0.108,0.886,252.747,-35.889,13.794
0.510,-0.159,0.971,244.324,-37.903,12.573
0.521,-0.213,1.050,232.666,-47.119,8.179
0.527,-0.280,1.169,220.215,-61.157,0.488
0.520,-0.402,1.323,209.961,-77.637,-8.850
0.517,-0.502,1.513,203.003,-93.262,-18.005
0.483,-0.654,1.719,196.289,-104.919,-23.315
0.485,-0.835,1.960,190.857,-109.436,-27.283
0.425,-1.084,2.158,177.368,-106.018,-26.062
0.502,-1.007,2.307,139.465,-92.590,-9.827
0.373,-0.968,2.356,87.036,-71.716,15.808
0.305,-0.802,2.254,31.372,-49.500,16.724
0.265,-0.632,2.002,-23.682,-27.710,16.113
0.290,-0.448,1.750,-61.218,-10.559,15.808
0.287,-0.268,1.523,-83.008,4.211,18.433
0.293,-0.101,1.342,-92.468,17.578,21.973
0.304,0.011,1.218,-94.421,25.513,24.414
0.320,0.095,1.158,-92.773,27.161,23.071
0.326,0.150,1.133,-94.238,24.475,19.165
0.326,0.166,1.105,-98.694,22.034,12.817
0.345,0.154,1.114,-102.783,18.066,3.296
0.371,0.123,1.158,-107.239,12.024,-7.690
0.380,0.082,1.177,-114.746,10.803,-15.076
0.389,0.059,1.168,-122.192,17.029,-16.785
0.398,0.037,1.133,-129.028,28.381,-14.221
0.412,0.030,1.077,-135.254,41.626,-8.240
0.428,0.046,1.010,-140.930,55.664,-0.549
0.444,0.075,0.939,-146.667,68.115,7.996
0.448,0.102,0.857,-153.748,76.904,14.648
0.447,0.142,0.784,-160.889,81.604,17.944
0.462,0.182,0.728,-165.649,82.764,19.104
0.453,0.192,0.691,-167.786,80.444,19.287
0.447,0.192,0.668,-168.579,77.271,17.700
0.435,0.185,0.658,-170.959,73.792,15.320
0.415,0.170,0.634,-175.720,73.792,13.794
0.398,0.155,0.587,-180.786,79.102,15.442
0.383,0.146,0.537,-186.218,88.135,20.447
0.361,0.161,0.472,-193.176,97.900,27.893
0.342,0.202,0.394,-199.951,107.361,35.034
0.323,0.250,0.312,-204.834,115.417,39.490
0.322,0.286,0.230,-206.482,120.911,40.466
0.328,0.324,0.151,-205.688,122.986,39.307
0.335,0.364,0.092,-204.224,120.911,36.926
0.342,0.385,0.054,-202.942,115.295,31.555
0.352,0.368,0.026,-202.148,108.154,24.414
0.356,0.347,-0.011,-202.820,102.783,19.287
0.341,0.304,-0.048,-203.674,100.708,17.395
0.316,0.258,-0.106,-204.834,105.042,19.470
0.300,0.238,-0.191,-204.773,114.868,25.574
0.277,0.252,-0.294,-202.881,125.366,33.447
0.269,0.313,-0.401,-198.914,132.385,38.208
0.279,0.363,-0.495,-195.312,132.141,36.072
0.340,0.390,-0.558,-192.505,123.169,26.306
0.413,0.377,-0.596,-192.200,105.469,13.611
0.434,0.351,-0.603,-194.702,84.412,3.479
0.379,0.274,-0.630,-196.655,75.500,0.793
0.333,0.245,-0.679,-192.749,89.905,11.169
0.324,0.273,-0.774,-183.167,118.042,30.884
0.335,0.340,-0.896,-174.683,140.564,47.546
0.397,0.423,-0.998,-169.495,143.738,50.415
0.465,0.437,-1.073,-168.823,122.864,37.781
0.564,0.448,-1.067,-168.213,85.938,18.188
0.580,0.395,-1.050,-166.260,48.767,0.977
0.493,0.345,-1.001,-160.095,29.297,-4.700
0.427,0.326,-0.969,-149.109,32.837,1.343
0.379,0.294,-0.999,-139.343,52.368,15.137
0.364,0.330,-1.081,-135.376,74.402,32.654
0.372,0.439,-1.192,-136.536,86.182,46.204
0.415,0.532,-1.279,-137.634,82.153,47.668
0.482,0.566,-1.324,-134.766,65.002,39.246
0.537,0.545,-1.297,-128.052,40.283,25.818
0.577,0.496,-1.215,-119.141,14.954,14.099
0.526,0.422,-1.122,-110.962,-3.662,8.057
0.411,0.409,-1.047,-103.638,-7.202,11.658
0.315,0.455,-1.027,-94.971,5.981,23.437
0.257,0.515,-1.047,-87.463,25.269,33.936
0.245,0.558,-1.090,-83.740,38.269,34.851
0.290,0.574,-1.144,-83.313,39.917,26.306
0.350,0.556,-1.179,-83.313,31.555,14.771
0.514,0.544,-1.149,-80.994,19.226,4.333
0.497,0.515,-1.166,-76.965,7.935,-1.160
0.471,0.372,-1.114,-72.693,3.540,-2.258
0.627,0.495,-1.098,-57.190,-2.258,-7.629
0.417,0.447,-1.016,-51.208,-1.282,13.123

0.782,-0.374,1.622,106.323,-69.519,2.136
0.751,-0.369,1.741,80.444,-70.740,-2.625
0.685,-0.376,1.737,41.687,-71.899,-3.235
0.625,-0.307,1.695,12.024,-66.589,1.892
0.566,-0.194,1.596,-8.728,-49.377,15.076
0.516,-0.068,1.449,-22.705,-25.635,29.419
0.491,0.066,1.279,-34.241,-5.371,39.185
0.467,0.198,1.133,-44.006,7.019,43.884
0.452,0.312,1.038,-50.964,12.390,43.213
0.456,0.400,1.001,-55.054,12.573,38.269
0.468,0.434,0.997,-58.716,8.911,30.090
0.497,0.432,1.032,-61.890,2.258,19.714
0.515,0.392,1.075,-66.040,-4.456,10.071
0.551,0.338,1.151,-70.679,-11.902,1.831
0.569,0.265,1.220,-76.538,-17.883,-4.761
0.583,0.203,1.268,-84.167,-18.860,-7.935
0.585,0.141,1.278,-93.201,-14.465,-8.118
0.588,0.109,1.265,-101.868,-6.104,-4.822
0.582,0.099,1.228,-110.474,4.333,1.404
0.566,0.107,1.169,-119.507,16.724,9.460
0.547,0.123,1.093,-128.662,29.236,17.700
0.533,0.151,1.000,-137.634,41.687,24.719
0.518,0.177,0.888,-145.691,52.795,29.846
0.509,0.217,0.781,-151.917,61.279,32.715
0.513,0.246,0.710,-154.663,65.063,32.593
0.502,0.255,0.688,-155.334,63.354,29.480
0.494,0.261,0.653,-159.363,60.791,26.611
0.494,0.247,0.614,-167.053,60.791,25.696
0.475,0.235,0.555,-176.270,63.416,29.480
0.444,0.256,0.481,-185.364,67.993,36.682
0.402,0.289,0.387,-192.200,74.097,42.236
0.365,0.332,0.286,-194.336,82.031,45.837
0.337,0.370,0.182,-192.383,89.905,47.302
0.316,0.414,0.088,-188.049,95.703,46.875
0.305,0.457,-0.004,-182.007,98.022,43.762
0.305,0.490,-0.076,-173.706,96.252,37.720
0.312,0.467,-0.106,-166.016,89.478,29.846
0.337,0.414,-0.109,-164.246,78.430,22.400
0.335,0.363,-0.099,-172.302,63.965,16.968
0.318,0.308,-0.105,-185.425,53.284,13.611
0.281,0.265,-0.163,-197.021,54.443,16.052
0.232,0.262,-0.240,-200.378,71.167,28.198
0.198,0.292,-0.330,-196.594,97.107,44.128
0.186,0.344,-0.439,-191.223,120.178,55.115
0.205,0.413,-0.562,-186.340,131.653,56.030
0.250,0.477,-0.658,-181.580,129.639,48.767
0.299,0.499,-0.704,-177.185,114.807,36.194
0.315,0.472,-0.709,-175.049,92.041,22.034
0.296,0.415,-0.711,-174.988,73.914,12.756
0.267,0.341,-0.751,-175.842,69.702,11.719
0.287,0.291,-0.805,-176.208,75.378,17.212
0.339,0.286,-0.886,-177.673,80.078,24.475
0.411,0.304,-0.979,-181.091,77.576,28.687
0.459,0.335,-1.019,-179.626,67.932,27.100
0.468,0.329,-1.035,-172.729,56.946,23.254
0.431,0.342,-1.048,-164.246,53.528,24.841
0.370,0.380,-1.093,-152.954,59.509,32.104
0.312,0.433,-1.161,-142.456,68.054,39.185
0.296,0.496,-1.233,-133.545,72.754,41.443
0.329,0.535,-1.288,-126.587,69.397,36.926
0.388,0.534,-1.296,-122.070,54.749,27.344
0.463,0.501,-1.253,-119.812,32.715,16.357
0.519,0.464,-1.163,-119.568,8.911,7.019
0.572,0.459,-1.041,-120.300,-10.254,1.526
0.521,0.388,-0.972,-120.422,-20.813,0.305
0.451,0.362,-0.901,-114.014,-17.944,7.812
0.337,0.378,-0.901,-105.042,0.427,24.597
0.266,0.468,-0.954,-97.595,26.306,40.894
0.268,0.533,-1.047,-93.567,45.715,43.823
0.332,0.554,-1.133,-91.919,49.866,36.316
0.402,0.551,-1.165,-89.783,40.283,25.757
0.465,0.516,-1.151,-86.121,24.292,15.198
0.505,0.484,-1.102,-81.787,7.874,7.751
0.569,0.460,-1.021,-79.529,-6.592,4.272
0.426,0.452,-0.993,-78.918,-16.907,4.761
0.484,0.538,-0.980,-78.918,-10.498,14.099
0.268,0.478,-1.081,-64.941,4.944,13.733
0.226,0.512,-1.108,-59.814,27.954,34.363
0.320,0.578,-1.186,-47.119,41.687,31.067
0.348,0.590,-1.246,-43.030,41.809,26.306
0.379,0.586,-1.258,-37.659,32.166,17.761
0.401,0.563,-1.240,-32.227,19.836,10.193
0.375,0.510,-1.179,-25.269,8.118,4.333
0.454,0.531,-1.136,-19.592,-1.648,2.502
0.408,0.513,-1.080,-14.099,-6.714,0.916
0.385,0.505,-1.033,-10.315,-7.874,0.488
0.379,0.491,-0.979,-5.676,-5.676,1.160
0.376,0.467,-0.962,-3.235,-3.723,2.380
0.376,0.464,-0.952,-2.502,-1.526,3.906
0.374,0.466,-0.963,-2.563,2.258,5.188
0.387,0.476,-0.980,-1.038,6.531,6.592
0.393,0.475,-0.997,1.404,8.789,7.263
0.397,0.472,-0.993,3.052,6.897,6.287
0.397,0.468,-0.973,4.333,2.686,3.906
0.394,0.467,-0.936,5.615,-1.770,0.916
0.381,0.456,-0.898,6.714,-5.188,-1.038
0.375,0.448,-0.860,7.080,-6.836,-2.197
0.372,0.433,-0.843,5.493,-6.714,-2.258
0.373,0.427,-0.841,3.601,-5.127,-1.282
0.371,0.429,-0.852,1.770,-2.502,1.709
0.372,0.442,-0.869,0.977,0.427,4.272
0.374,0.441,-0.883,1.160,2.014,5.127
0.369,0.439,-0.887,1.526,1.160,5.005
0.356,0.448,-0.884,2.808,-0.549,4.578
0.340,0.455,-0.878,4.395,-1.892,3.601
0.333,0.443,-0.866,5.859,-2.808,1.648
0.347,0.432,-0.853,7.385,-3.418,-0.977
0.361,0.419,-0.836,8.972,-3.479,-2.991
0.378,0.400,-0.814,9.888,-3.540,-3.601
0.381,0.385,-0.796,9.033,-3.296,-2.686
0.379,0.382,-0.795,6.409,-2.197,-0.793
0.372,0.390,-0.807,2.686,-0.366,1.465
0.366,0.396,-0.848,-0.671,1.770,3.174
0.356,0.412,-0.898,-3.113,4.089,4.700
0.354,0.443,-0.940,-3.235,5.066,5.310
0.359,0.462,-0.975,-1.038,4.028,4.211
0.371,0.469,-0.992,3.540,0.854,2.014
0.381,0.447,-1.005,7.629,-2.686,-0.488
0.388,0.427,-1.023,11.108,-5.249,-2.502

0.504,-0.420,1.644,74.524,-99.487,-43.518
0.483,-0.391,1.646,48.035,-94.177,-40.771
0.454,-0.342,1.582,30.334,-73.914,-26.001
0.433,-0.234,1.488,20.325,-43.945,-5.005
0.411,-0.095,1.337,11.169,-12.207,16.724
0.393,0.057,1.167,0.122,10.498,31.982
0.387,0.189,1.018,-10.193,20.508,36.560
0.405,0.302,0.903,-17.822,23.560,32.043
0.445,0.367,0.823,-22.400,22.888,23.560
0.491,0.386,0.776,-24.231,19.836,13.123
0.540,0.398,0.763,-24.841,15.503,4.822
0.573,0.379,0.770,-23.682,12.878,0.427
0.612,0.347,0.815,-19.958,11.230,-2.014
0.645,0.302,0.876,-17.212,9.216,-3.357
0.669,0.272,0.945,-17.639,6.836,-3.174
0.673,0.237,0.998,-19.958,4.761,-1.953
0.669,0.202,1.032,-23.926,3.601,-0.793
0.661,0.172,1.077,-28.503,2.563,0.366
0.646,0.102,1.103,-34.851,0.549,0.732
0.642,0.059,1.152,-41.931,-2.014,-1.404
0.635,0.009,1.190,-51.086,-3.784,-3.540
0.639,-0.016,1.212,-62.012,-4.150,-3.479
0.614,-0.031,1.224,-74.097,-2.625,-1.770
0.600,-0.027,1.228,-84.351,1.648,1.953
0.573,0.000,1.205,-95.276,9.521,8.789
0.537,0.035,1.147,-106.079,18.738,16.541
0.511,0.078,1.071,-115.845,27.893,23.437
0.481,0.109,0.993,-123.535,36.316,28.748
0.456,0.143,0.921,-129.639,44.556,33.447
0.435,0.178,0.848,-135.254,51.331,36.377
0.418,0.211,0.783,-140.991,55.420,36.377
0.417,0.237,0.741,-145.630,56.702,33.264
0.425,0.253,0.718,-150.085,56.396,27.710
0.435,0.274,0.698,-155.396,56.519,22.278
0.437,0.298,0.674,-160.461,58.472,18.372
0.445,0.323,0.645,-162.903,63.599,16.174
0.444,0.321,0.598,-164.246,71.411,17.090
0.452,0.299,0.541,-166.016,80.322,20.996
0.450,0.293,0.469,-168.701,88.806,28.076
0.447,0.317,0.395,-172.302,94.299,35.522
0.441,0.332,0.325,-173.950,96.558,39.124
0.457,0.355,0.285,-172.729,94.849,38.574
0.451,0.354,0.253,-172.974,89.294,36.194
0.450,0.369,0.240,-173.706,81.665,31.128
0.446,0.365,0.235,-175.781,74.402,24.597
0.438,0.347,0.228,-179.749,68.909,18.738
0.420,0.316,0.210,-183.411,68.359,16.357
0.388,0.296,0.167,-186.279,75.806,19.775
0.359,0.300,0.101,-187.683,88.562,27.039
0.337,0.300,0.017,-189.270,100.708,33.630
0.325,0.313,-0.069,-191.650,107.910,37.170
0.321,0.345,-0.147,-194.275,107.056,35.706
0.336,0.366,-0.211,-196.594,99.670,29.053
0.369,0.354,-0.232,-198.181,87.280,18.677
0.412,0.288,-0.214,-198.914,73.853,8.423
0.420,0.197,-0.204,-201.721,66.711,4.272
0.370,0.113,-0.248,-204.956,72.754,11.780
0.297,0.067,-0.353,-204.285,97.412,32.715
0.255,0.098,-0.512,-201.660,132.935,61.157
0.220,0.181,-0.704,-199.951,161.438,83.923
0.246,0.299,-0.886,-200.439,169.556,91.614
0.331,0.385,-1.024,-201.965,152.344,79.285
0.439,0.426,-1.095,-204.651,111.816,51.880
0.508,0.409,-1.065,-205.322,61.462,20.813
0.500,0.317,-0.986,-201.416,21.484,-1.404
0.416,0.180,-0.958,-194.031,9.460,-7.019
0.306,0.099,-1.006,-184.753,30.090,6.531
0.246,0.121,-1.139,-175.293,67.444,32.593
0.269,0.242,-1.338,-169.006,99.731,55.054
0.314,0.411,-1.524,-165.283,112.000,67.078
0.393,0.549,-1.644,-156.921,101.990,64.148
0.489,0.607,-1.668,-145.813,73.914,48.889
0.566,0.585,-1.587,-131.165,36.011,30.701
0.598,0.509,-1.412,-115.784,-1.343,16.724
0.584,0.443,-1.217,-104.736,-31.372,9.338
0.523,0.378,-1.048,-100.525,-51.208,7.324
0.399,0.334,-0.925,-100.342,-56.030,11.902
0.213,0.341,-0.885,-99.915,-39.368,26.794
0.074,0.409,-0.939,-96.741,-1.831,46.448
0.050,0.534,-1.089,-90.759,43.701,58.350
0.103,0.620,-1.317,-86.548,78.613,57.800
0.205,0.700,-1.497,-78.613,90.393,47.058
0.329,0.723,-1.609,-68.542,79.285,28.931
0.435,0.753,-1.577,-55.603,50.598,8.179
0.478,0.707,-1.525,-43.030,18.311,-6.409
0.501,0.650,-1.428,-23.071,-11.292,-20.325
0.386,0.560,-1.256,-14.648,-30.396,-14.893
0.409,0.547,-1.093,-5.615,-35.889,-18.921
0.399,0.503,-0.984,-2.441,-31.677,-14.038
0.390,0.497,-0.901,1.587,-17.578,-5.249
0.367,0.513,-0.874,3.967,0.122,3.845
0.388,0.548,-0.885,5.310,14.709,10.010
0.404,0.566,-0.911,3.967,20.508,9.277
0.435,0.561,-0.929,2.136,16.541,3.601
0.504,0.546,-0.924,0.427,8.728,-3.235
0.527,0.517,-0.932,0.977,2.380,-7.324
0.509,0.485,-0.915,2.441,-1.648,-7.446
0.511,0.460,-0.895,3.479,-4.883,-7.812
0.502,0.459,-0.865,3.540,-9.338,-6.897
0.482,0.454,-0.838,3.113,-11.230,-5.615
0.462,0.460,-0.819,3.967,-8.484,-2.808
0.441,0.464,-0.811,4.944,-3.479,0.916
0.430,0.463,-0.818,5.493,1.343,3.357
0.425,0.458,-0.827,4.883,3.174,3.357
0.428,0.460,-0.830,4.395,1.282,0.977
0.430,0.452,-0.830,3.784,-1.160,-0.854
0.436,0.445,-0.821,4.456,-2.380,-2.258
0.439,0.422,-0.802,5.127,-3.174,-3.052
0.435,0.398,-0.778,4.578,-4.089,-2.686
0.417,0.394,-0.765,2.136,-4.883,-1.526
0.398,0.408,-0.764,-0.122,-4.517,-0.061
0.387,0.416,-0.782,-2.136,-2.930,1.709
0.385,0.431,-0.801,-1.587,0.061,3.662
0.381,0.444,-0.822,-0.610,2.380,4.883
0.386,0.449,-0.835,0.000,2.625,3.845
0.396,0.447,-0.838,1.160,1.099,2.075
0.408,0.443,-0.833,3.174,-0.366,0.427
0.427,0.425,-0.818,4.822,-1.770,-1.282
0.443,0.403,-0.800,5.371,-2.930,-2.502

1.089,-0.437,1.501,180.725,-62.988,-37.170
1.179,-0.417,1.580,154.968,-76.965,-27.283
1.148,-0.467,1.847,134.338,-91.614,-32.898
1.031,-0.563,1.965,98.328,-120.239,-45.898
0.887,-0.610,2.007,55.176,-135.620,-46.875
0.780,-0.509,1.957,23.560,-120.911,-33.142
0.692,-0.364,1.750,-0.366,-77.332,-10.254
0.666,-0.170,1.432,-17.883,-22.278,14.038
0.637,0.045,1.094,-28.442,21.851,34.668
0.630,0.229,0.814,-35.339,43.640,43.091
0.629,0.355,0.603,-41.626,40.161,37.415
0.646,0.427,0.486,-48.340,19.836,22.705
0.692,0.448,0.473,-53.345,-5.737,5.798
0.742,0.441,0.528,-56.213,-27.832,-7.263
0.789,0.417,0.611,-57.861,-40.894,-14.771
0.825,0.387,0.681,-58.960,-44.434,-15.869
0.840,0.363,0.734,-58.411,-41.565,-11.902
0.842,0.332,0.766,-57.678,-36.072,-6.409
0.838,0.313,0.790,-57.373,-31.189,-1.465
0.826,0.289,0.820,-57.983,-28.931,1.648
0.813,0.271,0.866,-60.059,-28.931,1.465
0.804,0.228,0.869,-65.491,-30.273,0.244
0.795,0.238,0.898,-71.289,-29.602,-1.343
0.759,0.210,0.880,-79.224,-27.344,-0.854
0.755,0.203,0.854,-89.294,-23.132,2.869
0.717,0.236,0.805,-101.318,-18.433,8.728
0.685,0.278,0.749,-111.206,-12.634,13.184
0.675,0.313,0.704,-117.249,-4.089,17.944
0.662,0.331,0.649,-117.798,8.179,23.437
0.650,0.359,0.595,-116.150,21.484,29.785
0.635,0.381,0.541,-114.807,31.738,34.851
0.612,0.387,0.503,-112.915,38.025,37.048
0.574,0.405,0.460,-112.061,42.480,38.025
0.537,0.409,0.420,-112.122,45.227,37.720
0.507,0.396,0.406,-112.915,46.753,34.790
0.505,0.372,0.389,-117.859,47.424,31.128
0.492,0.327,0.351,-128.113,47.119,29.114
0.492,0.342,0.305,-138.000,47.668,26.489
0.483,0.354,0.256,-146.423,49.133,26.001
0.473,0.359,0.214,-148.743,53.894,27.527
0.453,0.385,0.165,-147.522,61.951,30.884
0.441,0.409,0.118,-145.264,69.824,33.447
0.421,0.420,0.058,-141.968,77.393,35.278
0.390,0.423,0.002,-138.245,82.153,36.133
0.395,0.361,-0.064,-136.292,81.909,35.156
0.406,0.286,-0.082,-139.282,76.904,33.752
0.358,0.235,-0.106,-151.489,68.298,35.217
0.341,0.217,-0.143,-168.457,64.819,37.170
0.333,0.225,-0.220,-181.946,70.679,41.748
0.328,0.263,-0.291,-187.378,81.238,49.683
0.329,0.308,-0.349,-187.744,90.576,55.115
0.349,0.342,-0.418,-186.340,96.619,55.542
0.355,0.346,-0.493,-183.411,98.267,52.185
0.314,0.324,-0.564,-176.819,101.624,51.575
0.276,0.329,-0.663,-165.894,115.723,59.448
0.250,0.352,-0.793,-155.029,132.019,69.885
0.278,0.385,-0.928,-149.109,137.329,74.158
0.365,0.404,-1.031,-151.489,122.131,67.078
0.481,0.405,-1.059,-161.438,85.083,48.767
0.526,0.387,-1.022,-172.607,41.138,29.175
0.471,0.334,-0.983,-176.147,15.320,21.240
0.324,0.332,-0.985,-167.725,22.095,34.058
0.189,0.443,-1.065,-150.330,57.129,63.660
0.124,0.601,-1.198,-132.446,96.741,89.539
0.166,0.766,-1.320,-119.446,113.464,93.750
0.308,0.848,-1.335,-109.314,97.107,73.853
0.431,0.777,-1.203,-100.403,54.077,42.053
0.452,0.631,-0.999,-95.093,6.897,13.550
0.425,0.507,-0.834,-97.229,-20.691,-1.648
0.378,0.464,-0.759,-102.722,-21.240,-1.221
0.361,0.489,-0.782,-106.323,-0.671,9.766
0.385,0.527,-0.879,-105.286,24.536,21.179
0.410,0.552,-0.982,-102.234,38.818,27.832
0.425,0.573,-1.058,-99.976,39.124,28.381
0.445,0.590,-1.114,-98.267,31.921,24.170
0.482,0.605,-1.148,-94.421,22.888,18.799
0.514,0.595,-1.143,-86.914,13.123,14.404
0.521,0.559,-1.109,-77.087,3.723,11.780
0.469,0.531,-1.071,-69.031,-1.465,12.695
0.405,0.545,-1.071,-62.134,1.465,19.409
0.432,0.647,-1.091,-58.411,11.475,29.724
0.318,0.645,-1.062,-55.420,22.644,30.640
0.119,0.508,-1.084,-50.476,19.348,19.470
0.410,0.656,-1.114,-47.424,15.198,23.926
0.374,0.639,-1.111,-35.400,13.000,17.822
0.370,0.593,-1.116,-31.616,11.047,13.367
0.389,0.573,-1.107,-28.748,5.920,8.972
0.396,0.569,-1.093,-25.452,1.526,6.775
0.388,0.563,-1.077,-20.264,-0.305,6.897
0.383,0.567,-1.053,-15.381,-0.610,7.385
0.467,0.579,-1.013,-12.207,-1.282,5.920
0.361,0.547,-1.014,-9.033,-1.953,2.930
0.359,0.537,-0.943,-4.883,-1.831,4.883
0.388,0.525,-0.911,-0.916,-1.770,1.038
0.408,0.502,-0.875,-0.305,-3.601,-1.648
0.417,0.489,-0.845,-1.343,-6.165,-4.028
0.422,0.476,-0.826,-2.258,-6.775,-3.967
0.432,0.482,-0.819,-1.160,-3.113,-1.404
0.435,0.487,-0.822,1.343,1.404,1.709
0.434,0.492,-0.826,3.174,4.211,3.174
0.440,0.497,-0.825,3.174,3.540,2.563
0.441,0.492,-0.820,2.930,1.221,0.732
0.454,0.482,-0.806,3.540,-0.671,-0.916
0.450,0.465,-0.788,4.211,-1.953,-1.099
0.433,0.454,-0.774,3.967,-2.502,-0.427
0.413,0.458,-0.762,2.136,-2.441,0.122
0.409,0.464,-0.773,0.183,-0.427,1.953
0.400,0.481,-0.791,-1.282,2.747,5.371
0.382,0.501,-0.806,-2.014,5.005,7.690
0.368,0.515,-0.822,-1.953,5.493,7.141
0.361,0.518,-0.826,-1.770,4.456,5.066
0.364,0.518,-0.825,-1.038,2.136,2.075
0.368,0.527,-0.819,0.427,0.244,-1.221
0.380,0.498,-0.820,2.502,-0.427,-4.333
0.383,0.480,-0.816,3.723,-0.732,-4.883
0.373,0.472,-0.818,3.723,-0.732,-3.357
0.368,0.480,-0.819,3.296,0.305,-0.732
0.359,0.489,-0.822,3.052,1.343,1.038
0.358,0.496,-0.825,2.441,1.953,1.526

1.149,-0.517,1.542,170.471,-66.223,-29.663
0.983,-0.690,1.766,157.104,-74.707,-29.114
1.042,-0.717,1.851,128.479,-79.102,-13.367
0.938,-0.800,2.081,105.164,-85.022,-20.813
0.816,-0.834,2.130,60.730,-99.243,-32.532
0.732,-0.754,2.111,9.460,-100.159,-33.386
0.643,-0.601,1.979,-30.396,-81.177,-18.982
0.565,-0.404,1.775,-56.946,-44.983,3.540
0.524,-0.217,1.553,-72.021,-7.751,24.414
0.511,-0.075,1.359,-81.177,17.151,35.950
0.522,0.023,1.214,-87.952,26.062,37.476
0.534,0.088,1.122,-96.191,21.423,31.067
0.542,0.131,1.062,-107.056,10.498,19.592
0.557,0.158,1.029,-116.333,-0.793,5.859
0.574,0.142,1.026,-122.314,-7.996,-6.531
0.598,0.094,1.063,-124.390,-10.437,-15.808
0.609,0.029,1.094,-127.197,-6.653,-18.738
0.603,-0.009,1.091,-134.521,3.235,-14.160
0.581,-0.014,1.048,-143.188,18.738,-5.127
0.566,0.018,0.974,-151.184,37.720,5.005
0.566,0.070,0.869,-156.677,56.091,13.245
0.570,0.115,0.753,-161.011,69.336,17.822
0.581,0.152,0.637,-164.185,76.721,19.043
0.589,0.170,0.531,-166.138,79.346,17.700
0.598,0.192,0.449,-166.748,78.674,15.991
0.603,0.203,0.395,-165.649,77.637,15.442
0.616,0.189,0.358,-164.734,77.881,16.663
0.615,0.168,0.325,-166.504,80.139,21.790
0.604,0.160,0.283,-170.837,85.388,31.799
0.578,0.176,0.213,-176.941,91.675,43.579
0.551,0.194,0.114,-183.105,97.839,54.626
0.502,0.250,0.050,-184.753,103.455,64.453
0.461,0.299,-0.042,-182.739,108.215,72.693
0.426,0.367,-0.121,-179.871,112.061,75.745
0.398,0.422,-0.214,-172.729,113.647,71.472
0.392,0.457,-0.283,-163.574,109.253,61.646
0.406,0.432,-0.317,-155.090,98.267,48.767
0.415,0.386,-0.328,-150.024,86.365,38.513
0.424,0.297,-0.330,-148.865,80.322,37.415
0.422,0.253,-0.333,-155.151,80.261,46.509
0.392,0.278,-0.387,-170.654,80.078,59.265
0.378,0.340,-0.461,-184.326,78.735,65.674
0.377,0.365,-0.522,-192.200,76.416,63.721
0.378,0.361,-0.570,-193.054,75.256,58.594
0.348,0.366,-0.628,-188.416,82.031,59.387
0.310,0.386,-0.707,-177.124,97.778,66.711
0.262,0.448,-0.798,-161.865,116.211,74.768
0.224,0.499,-0.906,-147.583,131.836,81.604
0.240,0.558,-1.000,-135.559,138.550,81.299
0.311,0.583,-1.080,-129.822,127.808,70.923
0.398,0.573,-1.098,-131.836,96.924,51.514
0.487,0.527,-1.057,-139.954,53.955,28.381
0.531,0.470,-0.977,-149.841,11.780,7.446
0.508,0.410,-0.909,-155.762,-14.282,-4.333
0.439,0.367,-0.880,-152.222,-14.404,-2.197
0.349,0.383,-0.894,-137.817,12.756,14.954
0.311,0.456,-0.969,-118.286,54.504,39.490
0.324,0.527,-1.074,-103.271,84.900,55.908
0.364,0.597,-1.155,-96.741,88.806,57.617
0.425,0.634,-1.187,-95.398,71.594,47.485
0.481,0.611,-1.165,-94.360,44.922,31.738
0.520,0.561,-1.093,-92.041,18.616,17.944
0.553,0.513,-1.011,-91.248,-1.831,8.423
0.561,0.466,-0.936,-92.712,-16.846,2.319
0.496,0.419,-0.871,-92.163,-24.231,1.953
0.407,0.435,-0.819,-87.036,-14.954,11.780
0.347,0.487,-0.837,-78.857,8.545,28.198
0.331,0.553,-0.884,-71.045,31.494,39.551
0.346,0.592,-0.954,-68.115,41.504,39.978
0.335,0.555,-0.995,-67.810,37.842,32.410
0.520,0.636,-1.056,-70.190,27.710,26.245
0.469,0.570,-1.005,-67.566,17.090,10.681
0.517,0.503,-1.008,-67.261,2.380,-1.648
0.435,0.393,-0.965,-62.744,-6.775,-5.005
0.551,0.475,-0.926,-53.040,-4.883,5.615
0.418,0.488,-0.914,-41.992,10.437,20.325
0.366,0.517,-0.953,-34.973,29.480,29.358
0.310,0.540,-1.009,-33.875,38.513,31.372
0.374,0.599,-1.054,-34.180,36.743,30.579
0.377,0.613,-1.088,-32.959,28.442,22.827
0.399,0.615,-1.096,-30.762,18.738,14.221
0.424,0.599,-1.083,-26.306,9.460,6.165
0.453,0.575,-1.057,-20.935,1.892,-0.122
0.473,0.547,-1.029,-16.174,-2.686,-3.723
0.483,0.532,-1.000,-12.207,-4.272,-4.578
0.485,0.526,-0.978,-7.874,-2.991,-2.869
0.481,0.515,-0.963,-3.906,0.793,0.793
0.475,0.515,-0.947,-0.916,5.432,5.676
0.461,0.522,-0.941,0.061,7.629,8.972
0.442,0.535,-0.943,-0.488,6.958,9.766
0.438,0.542,-0.945,-0.488,4.211,8.057
0.432,0.535,-0.943,0.488,0.610,4.761
0.424,0.528,-0.932,1.892,-3.357,1.465
0.419,0.525,-0.915,2.930,-7.690,-1.892
0.421,0.511,-0.892,3.967,-12.146,-5.249
0.424,0.494,-0.861,5.066,-14.771,-7.629
0.421,0.472,-0.829,6.592,-14.893,-7.690
0.422,0.457,-0.802,8.118,-12.756,-6.348
0.411,0.446,-0.782,8.789,-8.911,-4.272
0.411,0.451,-0.771,9.705,-4.089,-0.977
0.405,0.459,-0.774,10.193,-0.854,1.526
0.402,0.467,-0.777,9.521,0.488,2.258
0.406,0.469,-0.780,8.301,-0.488,1.221
0.414,0.472,-0.775,7.080,-2.991,-0.854
0.423,0.466,-0.769,6.042,-5.371,-3.418
0.436,0.454,-0.762,5.127,-6.958,-4.883
0.447,0.447,-0.758,4.883,-7.874,-5.249
0.447,0.444,-0.745,5.554,-8.118,-4.944
0.434,0.441,-0.734,5.615,-6.775,-3.235
0.423,0.443,-0.739,5.554,-3.601,-0.854
0.420,0.457,-0.762,5.249,1.282,2.014
0.429,0.477,-0.788,5.066,5.615,4.578
0.436,0.480,-0.808,4.883,6.531,4.395
0.442,0.480,-0.820,4.333,4.333,2.380
0.453,0.485,-0.813,4.517,0.549,0.000
0.459,0.470,-0.803,5.188,-2.380,-1.953
0.465,0.458,-0.787,5.859,-3.296,-2.563
0.465,0.449,-0.773,6.042,-3.113,-1.831
0.467,0.446,-0.762,5.859,-2.441,-0.916

0.333,0.654,-1.625,131.165,-19.592,-19.531
0.325,0.590,-1.572,149.536,-36.072,-34.302
0.341,0.498,-1.473,165.710,-55.359,-49.805
0.348,0.412,-1.342,180.481,-71.838,-59.753
0.328,0.328,-1.248,189.453,-79.834,-63.110
0.323,0.310,-1.191,193.298,-77.759,-59.998
0.339,0.328,-1.161,197.144,-68.665,-52.856
0.347,0.326,-1.131,202.454,-60.120,-46.143
0.386,0.339,-1.088,208.679,-54.260,-40.894
0.410,0.390,-1.012,215.210,-56.702,-42.725
0.391,0.343,-0.965,217.468,-69.580,-49.133
0.404,0.334,-0.853,223.511,-86.304,-58.960
0.388,0.281,-0.768,225.159,-101.746,-68.970
0.394,0.222,-0.687,225.525,-117.615,-77.332
0.397,0.184,-0.610,224.121,-130.127,-80.017
0.383,0.231,-0.528,224.731,-134.827,-76.172
0.361,0.249,-0.450,228.699,-135.925,-70.801
0.349,0.223,-0.366,234.497,-135.193,-69.641
0.333,0.186,-0.300,237.915,-130.676,-68.909
0.316,0.167,-0.255,242.004,-122.192,-66.284
0.334,0.167,-0.225,245.850,-112.305,-64.697
0.349,0.146,-0.191,247.620,-108.093,-65.674
0.394,0.134,-0.132,247.803,-108.582,-68.176
0.410,0.134,-0.055,243.408,-114.685,-69.946
0.427,0.131,0.046,237.488,-124.756,-72.205
0.417,0.128,0.133,229.980,-131.714,-73.242
0.406,0.126,0.203,226.807,-131.531,-72.388
0.412,0.079,0.250,230.225,-122.803,-68.237
0.438,0.027,0.312,236.084,-107.300,-60.242
0.454,-0.000,0.367,239.502,-91.553,-48.950
0.458,-0.019,0.419,239.563,-80.505,-40.039
0.476,-0.028,0.484,238.647,-72.388,-35.461
0.518,-0.053,0.557,237.610,-64.087,-33.386
0.565,-0.084,0.633,235.962,-56.580,-31.128
0.618,-0.114,0.703,233.887,-48.889,-27.344
0.679,-0.174,0.764,233.093,-42.908,-24.475
0.734,-0.250,0.830,231.689,-42.725,-22.583
0.772,-0.362,0.936,229.736,-49.805,-22.400
0.788,-0.479,1.076,224.731,-61.646,-24.109
0.795,-0.611,1.268,216.919,-74.280,-28.259
0.802,-0.753,1.476,206.177,-86.670,-34.607
0.685,-1.007,1.698,190.369,-96.741,-41.748
0.798,-1.085,1.963,168.274,-99.121,-38.086
0.688,-1.219,2.182,136.658,-93.872,-30.579
0.612,-1.237,2.281,89.355,-91.492,-30.090
0.533,-1.144,2.277,33.691,-86.182,-24.475
0.466,-0.988,2.130,-12.756,-66.895,-12.146
0.431,-0.776,1.890,-46.814,-34.119,6.470
0.405,-0.557,1.621,-70.129,-1.709,26.184
0.395,-0.359,1.388,-84.595,21.484,39.673
0.399,-0.209,1.204,-94.177,34.241,44.312
0.413,-0.111,1.085,-100.952,36.133,40.771
0.442,-0.036,1.041,-107.422,28.198,30.762
0.461,-0.001,1.021,-115.845,17.639,18.677
0.484,-0.000,1.022,-124.023,9.705,7.812
0.501,-0.021,1.029,-130.615,6.104,0.916
0.511,-0.037,1.019,-136.719,7.812,-1.099
0.522,-0.057,1.001,-141.418,13.733,-0.488
0.534,-0.072,0.988,-145.752,20.996,1.770
0.548,-0.072,0.973,-150.146,29.236,5.981
0.552,-0.051,0.948,-155.762,37.415,10.986
0.562,-0.021,0.903,-163.086,45.959,15.564
0.557,0.017,0.831,-170.532,54.321,20.325
0.551,0.061,0.752,-176.147,62.683,24.902
0.547,0.099,0.670,-179.382,69.885,28.198
0.533,0.126,0.588,-181.519,75.562,30.151
0.528,0.140,0.515,-182.800,79.224,30.579
0.535,0.150,0.464,-182.007,80.994,29.907
0.537,0.150,0.422,-182.190,81.360,29.785
0.548,0.135,0.381,-183.899,81.299,30.396
0.544,0.135,0.328,-187.439,81.848,32.532
0.544,0.166,0.278,-191.772,83.435,38.086
0.532,0.195,0.223,-195.190,87.036,44.312
0.523,0.231,0.174,-197.266,91.492,49.255
0.513,0.266,0.129,-197.327,95.764,53.528
0.484,0.313,0.070,-195.923,100.342,56.580
0.465,0.365,0.018,-192.505,105.408,59.265
0.433,0.404,-0.047,-186.646,110.596,60.913
0.415,0.450,-0.112,-179.810,112.610,59.265
0.414,0.491,-0.166,-173.706,109.070,52.856
0.421,0.429,-0.193,-169.678,98.267,40.649
0.476,0.353,-0.169,-169.556,82.458,28.198
0.496,0.287,-0.115,-179.382,65.674,19.958
0.488,0.199,-0.146,-195.007,55.786,18.799
0.480,0.218,-0.170,-203.979,63.416,28.320
0.421,0.247,-0.234,-203.247,85.571,50.476
0.379,0.302,-0.337,-195.618,115.356,73.853
0.340,0.371,-0.480,-186.951,141.663,91.675
0.320,0.466,-0.629,-180.176,156.189,101.257
0.328,0.556,-0.752,-174.927,154.907,99.731
0.376,0.630,-0.831,-171.143,136.536,84.961
0.437,0.621,-0.852,-170.166,102.966,59.509
0.487,0.531,-0.804,-169.617,62.195,29.602
0.516,0.389,-0.733,-170.898,29.358,7.812
0.493,0.233,-0.657,-174.072,15.320,2.930
0.376,0.150,-0.704,-179.626,27.100,19.531
0.308,0.244,-0.783,-174.561,60.730,48.889
0.259,0.367,-0.918,-162.292,99.792,78.430
0.252,0.496,-1.057,-151.855,124.939,94.849
0.301,0.592,-1.173,-145.386,126.099,93.628
0.383,0.630,-1.233,-143.555,102.478,76.965
0.465,0.610,-1.219,-144.592,60.913,51.331
0.514,0.546,-1.141,-144.836,15.991,26.367
0.463,0.443,-1.051,-143.982,-16.235,9.705
0.360,0.378,-1.014,-139.648,-21.240,9.583
0.268,0.390,-1.023,-130.066,1.709,25.391
0.229,0.427,-1.105,-120.056,33.875,42.847
0.230,0.498,-1.219,-114.502,57.434,51.697
0.250,0.584,-1.310,-110.413,63.538,52.002
0.282,0.652,-1.358,-105.774,55.176,44.434
0.327,0.674,-1.371,-98.938,38.696,32.410
0.373,0.650,-1.342,-89.539,18.982,19.958
0.404,0.619,-1.265,-78.552,-0.549,11.108
0.473,0.610,-1.149,-69.519,-16.724,4.700
0.491,0.594,-1.067,-64.087,-27.954,1.160
0.396,0.502,-0.931,-61.829,-30.579,-0.061
0.518,0.459,-0.818,-59.082,-32.654,-4.028
0.217,0.404,-0.820,-56.763,-23.621,3.296
0.293,0.467,-0.789,-50.415,-1.587,23.926

0.948,-0.631,1.416,207.825,-56.763,-23.743
0.824,-0.841,1.638,196.228,-70.190,-32.776
0.958,-0.903,1.841,164.246,-83.679,-27.527
0.791,-1.026,2.056,125.671,-94.299,-28.625
0.732,-1.016,2.168,74.280,-104.248,-35.583
0.649,-0.957,2.150,20.569,-103.027,-33.203
0.583,-0.842,2.037,-19.287,-86.548,-21.423
0.522,-0.681,1.844,-45.227,-54.077,0.244
0.457,-0.469,1.617,-60.242,-17.578,26.550
0.408,-0.262,1.396,-71.472,8.728,44.678
0.380,-0.098,1.223,-80.994,20.691,49.438
0.379,0.019,1.104,-90.515,19.592,42.786
0.396,0.093,1.032,-101.929,9.583,28.259
0.426,0.133,0.995,-113.892,-2.441,10.559
0.464,0.132,0.989,-122.742,-12.573,-5.554
0.497,0.119,0.990,-128.174,-16.296,-16.296
0.521,0.100,0.969,-130.554,-11.475,-19.958
0.551,0.077,0.941,-130.127,-1.343,-18.005
0.574,0.049,0.919,-128.845,9.583,-12.756
0.592,0.033,0.904,-129.883,18.738,-6.042
0.583,0.051,0.891,-134.399,23.926,0.427
0.558,0.096,0.866,-140.869,28.015,5.371
0.531,0.141,0.813,-146.606,32.593,7.935
0.507,0.177,0.753,-150.818,37.415,8.972
0.494,0.204,0.693,-153.076,42.175,9.155
0.486,0.220,0.634,-153.564,47.546,8.728
0.480,0.226,0.578,-153.015,53.589,8.972
0.481,0.225,0.533,-152.466,59.937,9.949
0.483,0.214,0.488,-153.320,66.284,11.597
0.493,0.206,0.442,-156.921,71.777,14.709
0.504,0.189,0.394,-162.720,75.806,19.897
0.495,0.203,0.350,-171.936,77.209,27.222
0.473,0.246,0.290,-182.068,77.637,34.607
0.470,0.293,0.213,-188.904,80.078,39.551
0.457,0.349,0.158,-188.293,83.191,44.434
0.451,0.392,0.127,-182.617,88.318,48.218
0.448,0.425,0.095,-176.819,94.055,50.110
0.448,0.462,0.059,-172.119,97.168,49.438
0.444,0.472,0.035,-168.579,96.985,46.082
0.437,0.476,0.015,-165.039,95.276,41.260
0.427,0.480,-0.004,-162.537,92.651,36.438
0.436,0.447,-0.007,-161.560,86.975,29.663
0.448,0.408,-0.009,-165.771,79.163,23.315
0.455,0.360,-0.029,-172.974,71.838,18.738
0.456,0.321,-0.058,-180.298,68.726,17.517
0.447,0.301,-0.107,-184.998,73.486,21.912
0.453,0.285,-0.168,-184.937,85.815,32.288
0.418,0.323,-0.235,-181.274,101.807,48.401
0.379,0.392,-0.320,-177.185,116.882,61.584
0.356,0.460,-0.415,-173.584,124.573,64.697
0.365,0.498,-0.498,-171.204,122.131,58.044
0.404,0.494,-0.550,-170.593,107.788,43.457
0.458,0.439,-0.563,-172.546,84.839,25.635
0.477,0.323,-0.559,-177.429,61.707,9.521
0.440,0.174,-0.581,-182.190,53.467,5.188
0.391,0.109,-0.672,-182.861,73.242,22.522
0.336,0.177,-0.836,-178.528,110.657,56.641
0.293,0.311,-1.019,-171.692,143.250,88.684
0.284,0.491,-1.189,-165.344,157.288,105.652
0.323,0.651,-1.325,-159.302,147.827,103.149
0.399,0.743,-1.380,-151.917,113.892,81.909
0.474,0.734,-1.341,-145.386,63.171,50.415
0.508,0.649,-1.218,-140.747,9.033,17.944
0.477,0.534,-1.092,-138.855,-31.555,-5.188
0.393,0.462,-0.995,-135.254,-44.617,-10.132
0.308,0.443,-0.944,-126.465,-26.367,1.221
0.273,0.463,-0.958,-117.371,8.850,19.043
0.299,0.512,-1.032,-110.596,41.382,31.860
0.350,0.563,-1.106,-105.408,57.312,36.865
0.401,0.602,-1.151,-100.342,55.481,34.973
0.446,0.615,-1.155,-95.886,41.931,27.771
0.480,0.595,-1.132,-90.942,23.315,18.555
0.502,0.561,-1.077,-85.144,5.005,10.254
0.496,0.513,-1.020,-81.177,-9.216,4.150
0.481,0.471,-0.974,-79.041,-17.700,1.648
0.308,0.440,-0.877,-74.463,-13.489,6.470
0.336,0.516,-0.950,-69.763,5.249,20.264
0.311,0.557,-0.949,-61.523,23.499,20.996
0.334,0.583,-1.001,-59.937,28.931,19.653
0.351,0.544,-1.027,-55.786,27.344,14.587
0.505,0.617,-1.022,-46.265,23.499,12.878
0.416,0.555,-0.990,-38.452,20.630,13.794
0.454,0.521,-0.979,-34.058,17.212,8.423
0.484,0.502,-0.956,-33.936,8.972,4.517
0.477,0.492,-0.925,-34.363,0.122,1.099
0.454,0.471,-0.906,-34.180,-3.723,0.671
0.462,0.494,-0.875,-30.640,-0.366,4.333
0.417,0.497,-0.880,-25.635,10.742,13.672
0.429,0.515,-0.911,-24.902,19.836,16.724
0.442,0.529,-0.954,-28.320,22.095,16.296
0.475,0.547,-1.008,-31.067,19.714,14.099
0.491,0.550,-1.039,-29.968,17.517,12.573
0.512,0.539,-1.063,-26.978,14.832,11.047
0.519,0.529,-1.064,-23.437,10.071,10.132
0.497,0.524,-1.066,-20.264,5.371,10.681
0.463,0.542,-1.067,-18.372,2.625,11.414
0.442,0.556,-1.077,-15.320,1.404,10.864
0.424,0.548,-1.074,-11.719,-0.244,9.644
0.402,0.535,-1.057,-7.324,-2.563,8.484
0.378,0.519,-1.029,-3.235,-4.822,7.019
0.361,0.511,-0.998,-0.610,-7.019,5.188
0.347,0.504,-0.969,0.916,-8.789,2.808
0.338,0.495,-0.952,2.563,-9.033,0.977
0.339,0.497,-0.926,5.371,-8.057,0.122
0.339,0.490,-0.901,8.301,-7.446,-0.977
0.347,0.479,-0.873,10.559,-7.568,-2.563
0.360,0.450,-0.842,13.000,-7.751,-4.028
0.377,0.430,-0.802,13.977,-8.789,-4.883
0.380,0.415,-0.769,12.207,-10.620,-5.066
0.384,0.407,-0.747,8.911,-11.780,-4.883
0.381,0.407,-0.738,5.432,-11.902,-4.395
0.386,0.418,-0.737,3.784,-9.583,-2.991
0.390,0.411,-0.743,4.028,-5.920,-1.587
0.388,0.419,-0.746,4.700,-2.686,0.183
0.381,0.432,-0.754,4.883,-0.366,2.014
0.381,0.446,-0.767,4.883,1.343,1.831
0.390,0.449,-0.775,4.944,1.099,0.366
0.407,0.436,-0.777,4.944,0.183,-1.465
0.427,0.420,-0.775,4.456,-0.427,-2.625

0.918,-0.769,1.453,193.237,-69.275,-43.030
1.017,-0.848,1.745,175.232,-75.867,-39.551
0.927,-0.997,1.938,152.527,-75.439,-32.837
0.906,-1.100,2.145,125.366,-80.872,-40.527
0.829,-1.152,2.209,76.782,-86.182,-39.795
0.758,-1.047,2.151,29.053,-76.843,-28.870
0.689,-0.840,1.924,-11.597,-50.110,-7.385
0.627,-0.580,1.628,-41.931,-18.250,16.785
0.577,-0.336,1.361,-62.805,3.723,33.447
0.525,-0.128,1.157,-77.148,14.099,39.185
0.506,0.003,1.036,-86.121,15.198,35.217
0.505,0.078,0.999,-92.285,8.606,25.024
0.504,0.126,0.986,-99.670,1.038,14.587
0.510,0.157,0.976,-106.018,-2.014,7.507
0.523,0.166,0.957,-109.863,0.183,3.174
0.542,0.153,0.930,-112.915,5.005,0.549
0.570,0.138,0.908,-115.356,10.010,-0.671
0.598,0.122,0.887,-118.591,14.160,-1.099
0.620,0.108,0.866,-122.620,17.761,-1.404
0.631,0.104,0.839,-127.563,21.667,-0.793
0.638,0.112,0.805,-132.141,26.428,1.221
0.642,0.126,0.759,-135.681,33.447,4.517
0.647,0.140,0.707,-138.062,40.222,8.179
0.651,0.154,0.647,-140.442,45.288,11.902
0.651,0.169,0.587,-143.311,47.791,15.503
0.644,0.197,0.528,-146.301,48.889,18.799
0.636,0.221,0.476,-148.560,50.293,21.240
0.635,0.240,0.428,-150.940,52.124,23.376
0.629,0.256,0.384,-153.931,53.162,25.574
0.615,0.283,0.339,-158.325,54.016,28.931
0.594,0.315,0.294,-162.292,54.749,30.884
0.587,0.352,0.258,-163.208,57.556,31.250
0.583,0.369,0.218,-161.621,62.012,30.762
0.585,0.399,0.159,-159.668,65.918,30.640
0.572,0.433,0.080,-156.311,67.383,30.640
0.564,0.426,0.020,-149.780,65.857,29.663
0.571,0.411,-0.003,-144.165,62.683,28.687
0.556,0.410,-0.026,-144.592,58.167,29.602
0.556,0.447,-0.058,-149.963,53.406,31.433
0.538,0.467,-0.085,-155.640,49.927,33.081
0.522,0.493,-0.087,-157.288,49.011,35.156
0.514,0.532,-0.111,-159.973,51.758,36.438
0.524,0.551,-0.134,-161.011,54.016,33.630
0.545,0.551,-0.148,-159.912,54.565,28.748
0.566,0.551,-0.166,-156.677,54.138,24.109
0.579,0.547,-0.181,-152.832,51.331,19.836
0.586,0.522,-0.181,-148.682,45.837,14.954
0.586,0.441,-0.168,-145.691,41.504,11.292
0.577,0.399,-0.173,-145.752,43.518,14.404
0.551,0.418,-0.205,-146.667,52.368,24.719
0.533,0.462,-0.241,-144.836,64.453,35.339
0.513,0.479,-0.287,-143.005,74.646,42.114
0.511,0.491,-0.318,-142.395,79.956,44.495
0.519,0.504,-0.353,-144.775,78.674,42.664
0.535,0.522,-0.382,-148.926,70.068,37.170
0.556,0.513,-0.394,-152.710,56.152,29.175
0.553,0.468,-0.385,-154.907,43.152,20.935
0.530,0.406,-0.380,-154.846,39.307,17.761
0.506,0.348,-0.392,-152.710,48.218,21.606
0.482,0.304,-0.436,-149.048,66.589,32.349
0.439,0.322,-0.516,-145.081,90.942,49.683
0.414,0.386,-0.612,-142.273,111.755,66.467
0.390,0.455,-0.727,-139.954,123.230,77.148
0.398,0.531,-0.829,-139.282,121.582,79.346
0.418,0.598,-0.909,-140.686,105.713,72.266
0.469,0.619,-0.962,-142.212,77.148,55.176
0.492,0.575,-0.974,-141.663,42.664,34.973
0.464,0.508,-0.951,-139.282,15.442,19.836
0.406,0.448,-0.943,-134.521,6.409,14.343
0.366,0.424,-0.966,-126.709,17.700,20.813
0.350,0.463,-1.012,-118.164,38.391,34.058
0.346,0.506,-1.094,-112.122,53.650,43.579
0.389,0.576,-1.115,-106.079,54.443,46.570
0.397,0.615,-1.116,-100.647,44.556,43.579
0.413,0.613,-1.093,-96.558,28.320,35.278
0.510,0.605,-1.032,-94.299,10.071,25.146
0.499,0.588,-1.017,-94.238,-6.653,17.456
0.417,0.505,-0.922,-94.910,-17.639,9.460
0.415,0.448,-0.889,-93.201,-24.841,1.221
0.368,0.434,-0.852,-89.050,-17.334,7.385
0.292,0.455,-0.862,-78.247,4.333,22.095
0.264,0.522,-0.904,-66.650,34.058,38.452
0.277,0.555,-0.974,-59.021,56.213,44.312
0.320,0.571,-1.036,-56.946,60.608,39.490
0.364,0.577,-1.070,-58.777,49.683,29.968
0.333,0.531,-1.077,-59.692,33.081,18.860
0.467,0.568,-1.079,-56.335,19.531,16.296
0.452,0.547,-1.071,-49.011,13.184,12.695
0.444,0.546,-1.063,-42.725,10.376,13.306
0.425,0.566,-1.063,-38.269,11.230,15.259
0.409,0.591,-1.092,-34.912,14.526,16.724
0.406,0.622,-1.125,-31.250,19.409,17.883
0.413,0.640,-1.159,-27.039,22.949,17.456
0.436,0.640,-1.192,-22.522,23.010,15.015
0.458,0.644,-1.217,-17.944,18.982,11.047
0.472,0.629,-1.216,-12.756,11.230,5.859
0.475,0.610,-1.193,-8.362,1.465,0.854
0.474,0.596,-1.148,-3.723,-6.409,-2.258
0.452,0.573,-1.092,1.099,-12.573,-3.967
0.434,0.556,-1.019,5.981,-16.663,-4.883
0.413,0.542,-0.956,8.484,-19.104,-5.493
0.394,0.524,-0.904,9.644,-20.142,-6.592
0.381,0.504,-0.859,10.864,-19.531,-7.446
0.367,0.482,-0.828,11.475,-16.663,-6.836
0.364,0.467,-0.807,11.780,-13.245,-5.859
0.369,0.451,-0.793,11.169,-11.597,-5.859
0.371,0.451,-0.783,10.742,-12.024,-7.202
0.382,0.446,-0.760,11.475,-14.099,-9.277
0.386,0.433,-0.728,11.963,-15.991,-10.986
0.391,0.410,-0.703,12.085,-16.235,-11.292
0.392,0.402,-0.687,12.024,-14.160,-9.460
0.390,0.402,-0.673,12.024,-10.864,-6.409
0.394,0.402,-0.665,11.108,-7.202,-4.883
0.402,0.403,-0.663,9.766,-3.967,-3.662
0.410,0.403,-0.664,7.751,-2.075,-2.258
0.417,0.400,-0.665,4.944,-0.793,-1.465
0.427,0.402,-0.671,1.831,-0.061,-1.038
0.435,0.408,-0.687,-1.099,0.854,-0.366
0.447,0.415,-0.709,-2.930,1.831,0.183

0.308,0.635,-1.696,104.248,9.399,1.099
0.325,0.620,-1.673,124.390,0.305,-7.446
0.347,0.556,-1.616,140.259,-16.846,-21.057
0.365,0.462,-1.534,151.062,-38.818,-35.461
0.361,0.351,-1.461,157.043,-59.448,-45.288
0.324,0.308,-1.395,159.790,-71.228,-46.143
0.294,0.311,-1.368,164.307,-69.580,-41.077
0.263,0.305,-1.387,176.025,-56.335,-35.950
0.269,0.359,-1.409,191.345,-38.696,-26.794
0.269,0.436,-1.389,209.473,-24.048,-21.973
0.271,0.447,-1.345,226.807,-23.254,-25.513
0.274,0.438,-1.270,240.662,-34.363,-37.048
0.288,0.388,-1.196,247.437,-56.091,-53.650
0.300,0.340,-1.095,249.084,-84.351,-69.031
0.287,0.322,-0.992,247.192,-111.511,-79.407
0.242,0.261,-0.925,244.934,-129.517,-86.426
0.227,0.244,-0.872,245.178,-131.653,-87.585
0.221,0.251,-0.837,251.282,-118.774,-80.200
0.225,0.299,-0.841,262.573,-95.520,-68.787
0.276,0.380,-0.837,278.076,-72.815,-59.143
0.316,0.385,-0.779,292.297,-69.336,-60.364
0.332,0.339,-0.679,298.523,-87.646,-71.655
0.315,0.286,-0.557,296.936,-119.141,-86.914
0.297,0.216,-0.421,293.152,-150.330,-102.173
0.289,0.133,-0.271,290.283,-172.363,-112.671
0.293,0.046,-0.153,288.025,-180.298,-114.441
0.307,-0.008,-0.087,287.903,-173.523,-106.323
0.332,-0.024,-0.025,292.725,-156.799,-90.698
0.323,-0.060,0.042,300.598,-138.550,-72.937
0.315,-0.088,0.102,309.143,-118.408,-57.068
0.317,-0.104,0.145,318.054,-97.412,-44.495
0.340,-0.142,0.218,327.332,-78.735,-34.546
0.380,-0.180,0.310,333.801,-64.880,-27.771
0.415,-0.234,0.388,331.909,-58.228,-26.978
0.494,-0.282,0.477,325.867,-60.181,-32.654
0.559,-0.420,0.558,316.284,-68.604,-42.786
0.638,-0.631,0.719,310.181,-81.360,-52.979
0.738,-0.839,0.955,305.969,-92.957,-58.289
0.788,-1.096,1.230,304.016,-103.210,-58.472
0.825,-1.422,1.630,306.641,-115.417,-60.486
0.842,-1.976,2.137,312.195,-125.610,-68.909
0.796,-2.405,2.648,290.161,-144.897,-73.486
0.588,-2.405,3.144,214.722,-177.124,-69.031
0.237,-2.271,3.364,108.398,-180.908,-53.467
0.147,-1.958,3.103,9.521,-143.982,-54.504
0.142,-1.528,2.518,-82.886,-83.679,-27.283
0.108,-1.040,1.941,-132.019,-24.292,12.756
0.071,-0.597,1.465,-151.062,21.790,48.706
0.060,-0.254,1.105,-156.677,46.387,64.758
0.083,-0.032,0.890,-156.860,47.485,56.885
0.148,0.070,0.809,-156.250,33.325,33.997
0.218,0.109,0.787,-158.997,16.541,9.888
0.295,0.133,0.815,-161.499,4.150,-9.521
0.361,0.129,0.839,-161.377,1.648,-21.301
0.413,0.095,0.864,-156.494,9.033,-23.804
0.442,0.044,0.902,-149.658,20.996,-18.311
0.461,0.003,0.960,-144.165,32.532,-10.681
0.461,-0.026,0.985,-144.897,42.053,-4.028
0.458,-0.030,0.975,-151.184,50.781,2.258
0.457,-0.018,0.935,-159.729,59.143,6.958
0.461,0.003,0.875,-167.358,67.322,9.888
0.471,0.025,0.801,-172.241,75.928,12.085
0.483,0.057,0.721,-174.683,83.801,14.648
0.493,0.085,0.643,-175.232,90.820,18.311
0.505,0.113,0.572,-175.903,96.313,21.606
0.509,0.141,0.501,-179.626,98.572,25.024
0.511,0.180,0.434,-184.021,98.572,27.954
0.505,0.211,0.369,-187.988,99.487,31.067
0.505,0.251,0.303,-190.308,101.746,34.485
0.497,0.285,0.237,-192.322,103.577,37.720
0.487,0.322,0.173,-193.665,103.577,39.063
0.496,0.341,0.117,-194.275,100.525,37.048
0.501,0.365,0.068,-193.115,95.642,34.058
0.500,0.388,0.032,-190.430,90.576,31.860
0.501,0.401,0.005,-187.195,87.036,29.663
0.501,0.391,-0.011,-184.143,85.693,27.954
0.493,0.392,-0.022,-183.228,87.708,29.724
0.467,0.356,-0.056,-182.495,94.055,35.889
0.447,0.388,-0.093,-180.420,102.966,44.556
0.433,0.419,-0.141,-180.969,107.361,48.401
0.443,0.451,-0.196,-182.190,104.736,45.654
0.456,0.474,-0.254,-183.838,95.276,37.903
0.466,0.499,-0.311,-183.167,82.458,27.161
0.505,0.455,-0.342,-179.321,70.984,16.724
0.538,0.394,-0.372,-175.781,63.293,12.512
0.529,0.362,-0.402,-175.537,59.570,16.235
0.482,0.385,-0.433,-176.147,64.819,27.283
0.441,0.448,-0.481,-174.011,81.970,41.504
0.418,0.504,-0.535,-168.030,103.333,52.490
0.433,0.550,-0.601,-161.377,119.019,55.298
0.485,0.569,-0.657,-156.982,121.094,48.706
0.541,0.574,-0.693,-154.724,107.605,36.682
0.603,0.560,-0.693,-154.053,81.787,20.874
0.632,0.464,-0.667,-155.212,51.331,4.578
0.588,0.365,-0.626,-157.227,31.311,-0.854
0.474,0.299,-0.652,-157.166,39.429,11.169
0.401,0.335,-0.723,-149.963,70.251,37.109
0.350,0.418,-0.837,-141.724,104.797,64.148
0.340,0.528,-0.954,-136.230,125.488,79.285
0.372,0.627,-1.056,-134.827,126.099,77.332
0.443,0.677,-1.127,-134.644,106.445,61.584
0.523,0.678,-1.131,-133.057,70.923,38.696
0.588,0.629,-1.068,-130.554,27.954,14.587
0.627,0.540,-0.954,-128.418,-11.658,-4.761
0.602,0.426,-0.827,-128.113,-41.504,-16.724
0.502,0.308,-0.736,-127.197,-49.377,-16.296
0.384,0.270,-0.719,-123.352,-25.879,2.136
0.294,0.348,-0.764,-116.516,17.761,31.433
0.253,0.453,-0.868,-108.887,61.890,54.504
0.264,0.542,-0.987,-103.149,89.294,62.195
0.426,0.599,-1.068,-99.792,93.933,55.725
0.407,0.636,-1.141,-99.182,77.698,42.297
0.423,0.586,-1.167,-99.792,54.321,27.527
0.539,0.545,-1.114,-96.252,20.569,2.014
0.628,0.459,-1.055,-97.046,-9.644,-10.376
0.431,0.365,-1.009,-89.661,-26.123,-13.062
0.450,0.394,-0.966,-79.407,-16.418,5.310
0.342,0.406,-1.011,-65.735,14.404,22.461
0.315,0.495,-1.113,-56.030,45.898,38.513

0.694,-1.074,1.438,289.490,-78.552,-22.278
0.724,-1.425,1.866,283.936,-96.191,-29.785
0.709,-1.847,2.406,266.357,-121.399,-46.631
0.628,-2.313,2.895,221.191,-148.193,-64.087
0.570,-2.345,3.280,135.010,-165.100,-64.453
0.388,-2.109,3.201,33.936,-139.343,-40.283
0.338,-1.731,2.668,-45.898,-80.994,-14.648
0.308,-1.223,2.021,-99.182,-20.325,23.621
0.236,-0.663,1.427,-122.375,21.362,61.218
0.173,-0.185,0.989,-130.737,40.710,79.651
0.157,0.127,0.742,-128.967,40.100,73.975
0.184,0.294,0.618,-124.817,28.809,55.237
0.221,0.377,0.578,-121.765,15.015,36.072
0.252,0.402,0.602,-118.042,3.662,20.569
0.287,0.378,0.693,-112.244,-3.967,7.202
0.304,0.323,0.795,-107.422,-7.202,-2.747
0.318,0.262,0.873,-102.966,-4.150,-7.019
0.352,0.204,0.938,-96.008,6.042,-6.958
0.392,0.149,0.972,-89.844,21.240,-2.563
0.426,0.120,0.982,-87.402,34.485,4.333
0.446,0.111,0.981,-88.745,43.457,10.132
0.461,0.110,0.965,-92.773,49.744,13.000
0.474,0.103,0.935,-96.313,54.626,13.428
0.495,0.077,0.923,-98.450,56.396,11.841
0.512,0.027,0.921,-102.173,53.223,8.423
0.526,0.002,0.931,-109.619,48.096,4.883
0.532,-0.000,0.918,-119.324,44.434,3.906
0.537,-0.003,0.889,-128.723,45.593,6.226
0.543,0.013,0.841,-135.315,52.917,13.123
0.531,0.045,0.778,-139.160,64.514,24.292
0.513,0.089,0.710,-142.395,76.599,36.560
0.487,0.140,0.632,-145.813,87.769,46.875
0.460,0.208,0.539,-147.827,96.130,53.650
0.443,0.282,0.462,-147.705,99.243,54.932
0.419,0.337,0.408,-147.156,96.619,49.622
0.429,0.320,0.387,-146.973,89.355,39.368
0.452,0.292,0.403,-149.719,79.163,26.489
0.486,0.278,0.419,-157.654,68.237,17.395
0.482,0.293,0.406,-170.227,58.960,14.221
0.470,0.300,0.374,-179.993,58.167,14.404
0.471,0.274,0.319,-181.152,69.885,20.020
0.460,0.270,0.258,-176.575,90.576,34.363
0.450,0.310,0.175,-172.546,112.793,51.208
0.451,0.375,0.069,-171.082,126.526,61.646
0.459,0.469,-0.050,-170.288,128.845,63.843
0.464,0.564,-0.141,-168.274,119.629,57.495
0.487,0.597,-0.164,-163.330,101.746,41.687
0.518,0.569,-0.123,-159.790,80.017,22.339
0.523,0.441,-0.092,-164.734,59.326,5.188
0.535,0.318,-0.049,-170.715,48.584,-3.052
0.507,0.296,-0.085,-175.842,53.467,5.676
0.489,0.323,-0.158,-179.077,72.388,25.452
0.459,0.361,-0.238,-175.415,96.863,48.035
0.436,0.434,-0.330,-169.800,119.263,66.589
0.438,0.501,-0.417,-166.626,130.798,74.097
0.467,0.576,-0.518,-166.382,127.441,69.702
0.510,0.621,-0.574,-165.955,108.948,55.664
0.554,0.601,-0.551,-164.490,78.918,35.278
0.563,0.509,-0.478,-165.039,46.509,13.184
0.535,0.365,-0.419,-168.579,26.184,-0.122
0.459,0.281,-0.435,-172.607,31.677,7.263
0.370,0.296,-0.520,-169.556,65.735,35.828
0.328,0.387,-0.673,-158.142,111.694,69.397
0.324,0.523,-0.871,-150.940,142.029,91.003
0.377,0.657,-1.056,-147.217,144.226,92.224
0.461,0.740,-1.161,-145.630,118.408,74.768
0.554,0.763,-1.152,-143.372,73.669,46.814
0.616,0.715,-1.040,-141.968,22.827,17.395
0.658,0.633,-0.897,-143.005,-20.447,-7.446
0.665,0.511,-0.776,-146.545,-48.584,-23.499
0.578,0.347,-0.713,-146.912,-50.720,-23.865
0.448,0.316,-0.738,-138.855,-18.799,1.160
0.342,0.411,-0.855,-125.000,37.537,40.833
0.354,0.542,-1.021,-105.469,87.158,70.679
0.379,0.675,-1.147,-93.506,104.187,81.116
0.415,0.759,-1.190,-87.585,88.623,72.144
0.453,0.760,-1.156,-86.487,54.382,50.598
0.474,0.708,-1.068,-88.501,16.296,27.649
0.486,0.641,-0.975,-91.675,-12.634,10.315
0.475,0.578,-0.892,-94.666,-29.724,0.549
0.508,0.540,-0.829,-94.421,-32.227,0.244
0.440,0.532,-0.846,-90.088,-17.456,11.658
0.284,0.536,-0.861,-80.261,12.756,28.381
0.272,0.604,-0.966,-70.313,39.734,41.626
0.266,0.684,-1.027,-61.523,57.312,49.500
0.286,0.714,-1.076,-51.941,63.110,48.218
0.325,0.738,-1.099,-46.143,58.960,41.687
0.371,0.726,-1.110,-44.006,46.082,30.090
0.409,0.690,-1.091,-43.579,27.649,16.418
0.427,0.656,-1.040,-43.884,7.874,5.249
0.433,0.636,-0.984,-44.312,-6.226,-1.404
0.434,0.613,-0.931,-42.908,-12.634,-3.784
0.424,0.592,-0.887,-38.879,-11.963,-2.502
0.410,0.589,-0.874,-33.813,-4.883,1.648
0.404,0.599,-0.887,-27.283,5.066,6.531
0.353,0.559,-0.903,-20.752,14.038,9.705
0.476,0.624,-0.941,-15.869,19.531,13.428
0.441,0.598,-0.986,-12.024,20.752,12.024
0.483,0.585,-0.996,-10.620,16.602,8.728
0.485,0.571,-0.991,-10.559,8.179,5.066
0.468,0.556,-0.970,-10.742,0.122,3.113
0.434,0.557,-0.955,-9.766,-2.563,3.174
0.409,0.570,-0.947,-7.690,-2.136,4.333
0.412,0.585,-0.943,-5.188,-1.038,4.578
0.394,0.582,-0.942,-1.709,-0.610,3.540
0.375,0.573,-0.923,2.502,-1.404,2.686
0.390,0.566,-0.904,6.714,-2.197,0.183
0.400,0.549,-0.880,9.460,-3.479,-2.563
0.416,0.529,-0.850,10.681,-6.042,-4.944
0.426,0.507,-0.822,10.498,-8.362,-6.165
0.434,0.491,-0.789,9.766,-10.254,-6.287
0.427,0.478,-0.760,7.812,-11.963,-5.920
0.414,0.475,-0.743,5.310,-12.146,-5.066
0.400,0.482,-0.732,4.211,-10.071,-3.357
0.386,0.481,-0.731,4.089,-6.287,-0.854
0.382,0.491,-0.729,4.822,-2.686,1.404
0.380,0.503,-0.735,5.310,0.061,3.113
0.384,0.516,-0.742,6.042,0.610,2.502
0.401,0.514,-0.748,6.592,-1.038,-0.061

0.274,0.724,-1.645,129.700,-49.683,-16.418
0.283,0.751,-1.578,152.466,-50.781,-19.470
0.306,0.774,-1.423,175.598,-59.021,-28.870
0.308,0.714,-1.257,189.880,-72.693,-39.124
0.316,0.660,-1.104,197.571,-85.999,-48.401
0.320,0.598,-1.006,198.181,-94.299,-54.199
0.328,0.567,-0.943,197.998,-96.008,-54.504
0.330,0.533,-0.894,201.355,-90.393,-49.866
0.338,0.524,-0.839,208.313,-78.674,-42.908
0.347,0.523,-0.766,218.872,-65.125,-37.109
0.353,0.481,-0.688,228.821,-55.237,-35.767
0.360,0.445,-0.622,234.131,-51.575,-37.292
0.374,0.437,-0.561,235.718,-55.481,-41.199
0.384,0.423,-0.490,235.840,-67.749,-48.645
0.398,0.376,-0.406,234.619,-86.243,-59.937
0.420,0.307,-0.324,231.079,-106.079,-70.618
0.435,0.270,-0.243,224.731,-123.718,-76.843
0.430,0.236,-0.165,220.276,-136.169,-78.918
0.421,0.196,-0.090,219.299,-140.747,-78.430
0.414,0.117,-0.071,220.093,-136.414,-73.792
0.415,0.096,-0.042,223.083,-123.901,-66.406
0.420,0.103,-0.034,226.990,-108.582,-56.763
0.426,0.108,-0.025,229.736,-97.900,-49.500
0.426,0.124,-0.015,230.103,-93.750,-46.387
0.430,0.157,0.007,230.103,-94.055,-45.410
0.433,0.153,0.045,228.638,-98.206,-46.021
0.426,0.172,0.094,225.281,-104.675,-46.448
0.404,0.169,0.133,223.450,-111.023,-46.448
0.379,0.106,0.170,224.670,-113.892,-46.997
0.383,0.055,0.209,225.098,-109.985,-43.884
0.396,-0.008,0.247,224.426,-101.135,-36.011
0.407,-0.023,0.294,221.436,-89.844,-23.071
0.380,-0.018,0.288,216.675,-76.965,-9.094
0.403,0.070,0.274,217.529,-62.195,0.061
0.402,0.045,0.248,226.135,-52.185,4.089
0.423,0.074,0.293,236.633,-49.805,5.249
0.446,0.031,0.372,245.178,-52.551,3.540
0.449,-0.004,0.456,247.131,-56.152,1.160
0.446,-0.101,0.553,249.146,-59.082,2.441
0.464,-0.213,0.675,252.991,-56.946,6.836
0.485,-0.352,0.801,257.446,-51.636,12.329
0.537,-0.484,0.969,261.475,-46.814,15.686
0.585,-0.683,1.180,264.954,-46.387,14.465
0.668,-0.878,1.487,263.977,-54.016,7.629
0.660,-1.207,1.797,259.338,-65.613,-3.601
0.747,-1.530,2.233,247.375,-73.792,-11.902
0.683,-1.840,2.552,210.388,-81.970,-9.583
0.564,-1.871,2.814,142.883,-99.060,-15.991
0.429,-1.731,2.827,54.260,-108.276,-16.724
0.338,-1.478,2.596,-23.193,-84.900,-4.578
0.291,-1.130,2.165,-75.989,-35.522,23.315
0.230,-0.744,1.690,-105.957,11.536,56.152
0.161,-0.333,1.282,-120.605,40.039,77.454
0.114,-0.046,0.979,-126.465,45.898,78.064
0.115,0.111,0.831,-125.488,34.424,59.631
0.135,0.165,0.786,-125.122,16.479,34.058
0.160,0.168,0.793,-125.977,0.488,11.414
0.199,0.148,0.862,-125.977,-10.437,-7.141
0.240,0.091,0.956,-124.756,-15.503,-21.118
0.275,0.031,1.023,-124.817,-10.986,-27.161
0.299,-0.011,1.055,-125.671,1.526,-24.597
0.326,-0.037,1.051,-127.319,18.494,-18.433
0.361,-0.047,1.011,-130.676,35.156,-11.841
0.395,-0.048,0.959,-135.437,47.913,-7.080
0.425,-0.034,0.896,-141.418,55.847,-4.578
0.447,-0.010,0.828,-147.339,61.584,-3.052
0.466,0.012,0.765,-151.001,66.528,-2.380
0.476,0.027,0.715,-151.855,71.716,-1.587
0.491,0.036,0.677,-150.146,77.759,-0.488
0.503,0.023,0.646,-148.865,82.886,-0.305
0.530,0.009,0.640,-149.963,85.022,0.122
0.549,-0.054,0.611,-156.006,84.290,1.770
0.575,-0.077,0.599,-167.297,80.505,5.737
0.546,-0.040,0.562,-183.838,75.378,13.611
0.529,0.019,0.511,-197.937,75.562,21.362
0.519,0.058,0.449,-206.482,80.627,27.710
0.507,0.095,0.387,-209.351,89.172,35.095
0.505,0.147,0.314,-208.679,98.206,43.274
0.500,0.209,0.230,-207.031,104.248,49.927
0.493,0.280,0.153,-203.918,106.384,53.833
0.491,0.344,0.095,-199.097,103.394,53.406
0.486,0.381,0.062,-194.458,95.886,48.157
0.491,0.405,0.050,-190.735,86.243,40.649
0.493,0.416,0.058,-189.331,76.477,32.654
0.504,0.416,0.055,-190.735,67.749,26.550
0.478,0.371,0.071,-192.444,63.599,21.301
0.476,0.334,0.063,-191.772,64.453,20.386
0.457,0.300,0.051,-192.810,73.120,25.085
0.420,0.289,0.005,-193.665,92.285,36.072
0.407,0.333,-0.058,-192.505,113.342,50.232
0.377,0.377,-0.136,-194.519,128.296,60.791
0.376,0.450,-0.210,-198.181,132.812,63.721
0.368,0.477,-0.272,-204.041,125.732,59.570
0.406,0.531,-0.289,-206.055,110.168,47.058
0.444,0.564,-0.303,-212.097,87.830,31.555
0.442,0.496,-0.312,-219.055,63.232,16.235
0.428,0.425,-0.284,-219.849,44.250,1.770
0.373,0.291,-0.302,-220.093,44.006,-1.892
0.316,0.196,-0.341,-215.454,72.021,12.329
0.282,0.156,-0.426,-205.139,119.812,41.931
0.256,0.189,-0.539,-196.716,164.124,76.050
0.240,0.274,-0.658,-196.289,189.697,101.074
0.250,0.378,-0.781,-203.003,191.772,109.741
0.276,0.460,-0.880,-215.393,170.837,101.990
0.327,0.502,-0.958,-227.600,129.944,82.458
0.359,0.486,-0.999,-235.229,79.468,55.725
0.353,0.421,-1.000,-240.540,33.936,29.663
0.250,0.269,-1.050,-242.737,10.925,15.930
0.168,0.171,-1.117,-237.305,17.822,20.752
0.107,0.161,-1.204,-223.694,47.241,37.781
0.125,0.217,-1.320,-207.886,81.360,56.335
0.169,0.308,-1.416,-195.435,100.952,63.171
0.241,0.411,-1.500,-190.186,92.285,55.908
0.315,0.454,-1.542,-185.974,65.063,42.786
0.379,0.458,-1.546,-178.955,29.053,26.672
0.422,0.412,-1.504,-168.335,-4.761,12.390
0.354,0.342,-1.466,-157.959,-26.733,6.165
0.282,0.321,-1.455,-149.353,-29.663,10.193
0.933,0.383,-1.387,-140.930,-15.564,19.287

0.274,0.669,-1.643,-29.785,26.489,21.667
0.323,0.641,-1.595,-20.386,5.127,3.357
0.377,0.590,-1.551,-13.489,-5.859,-4.700
0.410,0.552,-1.517,-6.470,-7.568,-5.249
0.445,0.559,-1.482,0.977,-5.798,-3.235
0.448,0.566,-1.452,6.348,-4.456,0.488
0.461,0.583,-1.417,10.498,-6.958,2.502
0.420,0.581,-1.361,13.367,-11.902,1.282
0.430,0.581,-1.271,18.860,-17.395,-1.160
0.412,0.545,-1.182,24.597,-23.682,-4.395
0.388,0.507,-1.094,29.175,-30.090,-9.216
0.383,0.467,-1.008,31.128,-37.048,-10.742
0.349,0.437,-0.936,31.799,-40.527,-11.536
0.335,0.421,-0.869,31.982,-41.260,-12.024
0.314,0.406,-0.822,31.433,-39.429,-12.695
0.302,0.396,-0.784,31.982,-35.583,-13.428
0.303,0.387,-0.754,31.250,-31.860,-13.367
0.310,0.374,-0.723,29.663,-28.564,-13.916
0.322,0.353,-0.693,27.100,-25.085,-14.587
0.336,0.335,-0.669,23.743,-21.179,-14.282
0.348,0.316,-0.651,20.569,-16.113,-12.695
0.362,0.308,-0.633,17.090,-11.169,-10.315
0.376,0.306,-0.624,12.207,-8.606,-8.301
0.388,0.307,-0.619,7.141,-6.897,-7.019
0.398,0.307,-0.628,2.808,-4.883,-5.249
0.395,0.310,-0.645,-0.671,-2.625,-2.625
0.391,0.324,-0.671,-2.869,0.610,0.244
0.388,0.345,-0.700,-3.967,3.906,2.686
0.392,0.364,-0.723,-3.723,4.944,2.502
0.402,0.361,-0.739,-3.784,3.601,0.061
0.418,0.342,-0.748,-3.662,0.854,-2.808
0.443,0.332,-0.750,-3.296,-1.953,-4.639
0.451,0.323,-0.744,-3.906,-3.357,-5.066
0.455,0.315,-0.745,-6.165,-2.747,-3.479
0.456,0.318,-0.758,-8.850,0.183,-0.244
0.454,0.331,-0.782,-11.169,4.639,3.723
0.450,0.353,-0.811,-12.451,8.789,7.263
0.450,0.370,-0.840,-13.367,11.902,9.338
0.449,0.379,-0.866,-13.428,12.878,9.888
0.449,0.385,-0.883,-12.512,12.329,9.705
0.449,0.385,-0.889,-10.742,10.010,8.606
0.446,0.380,-0.884,-9.155,6.226,6.714
0.446,0.369,-0.872,-8.423,1.343,4.578
0.433,0.355,-0.862,-8.789,-2.563,2.258
0.427,0.351,-0.857,-9.827,-3.845,1.709
0.415,0.356,-0.874,-10.315,-1.648,3.723
0.405,0.376,-0.900,-10.254,3.540,6.165
0.400,0.394,-0.926,-9.949,8.118,8.667
0.397,0.411,-0.943,-8.728,10.742,9.216
0.404,0.417,-0.951,-7.629,10.071,7.812
0.410,0.412,-0.956,-7.446,6.042,5.188
0.415,0.407,-0.952,-7.446,-0.122,1.770
0.420,0.395,-0.939,-6.592,-4.822,-0.854
0.418,0.374,-0.932,-5.005,-7.324,-2.319
0.420,0.371,-0.923,-2.319,-7.629,-2.502
0.417,0.371,-0.914,0.610,-6.958,-1.465
0.418,0.366,-0.909,2.380,-5.615,-0.244
0.414,0.366,-0.903,3.845,-3.967,0.488
0.423,0.365,-0.892,4.883,-3.174,1.038
0.413,0.361,-0.878,5.859,-2.869,1.648
0.411,0.351,-0.861,6.470,-3.601,2.563
0.400,0.344,-0.847,5.859,-4.211,2.380
0.393,0.344,-0.835,4.944,-4.578,1.892
0.389,0.339,-0.826,3.723,-5.188,1.587
0.388,0.338,-0.821,2.808,-5.981,0.488
0.388,0.344,-0.819,2.747,-6.409,-0.671
0.393,0.346,-0.818,3.479,-6.226,-0.977
0.395,0.350,-0.817,4.700,-4.944,-1.038
0.407,0.354,-0.816,5.737,-3.174,-0.427
0.408,0.349,-0.820,5.920,-1.465,0.244
0.417,0.345,-0.822,5.981,0.183,0.793
0.429,0.343,-0.817,6.653,1.465,2.197
0.433,0.346,-0.800,8.118,2.319,3.174
0.441,0.339,-0.780,7.996,1.587,4.272
0.424,0.325,-0.761,5.981,0.122,4.700
0.409,0.323,-0.754,2.441,-0.427,5.249
0.392,0.333,-0.758,-2.197,0.305,6.653
0.387,0.350,-0.786,-5.981,3.174,7.874
0.366,0.375,-0.819,-6.592,6.714,7.568
0.387,0.392,-0.845,-5.920,8.606,8.057
0.391,0.386,-0.870,-4.822,8.728,6.653
0.406,0.384,-0.882,-2.930,7.568,4.456
0.416,0.374,-0.881,-1.587,5.676,2.991
0.418,0.364,-0.879,-0.549,5.005,2.319
0.432,0.357,-0.873,0.000,5.920,2.930
0.440,0.353,-0.870,0.122,6.042,3.784
0.439,0.343,-0.862,-0.610,4.578,4.211
0.422,0.332,-0.856,-1.770,2.625,4.456
0.413,0.331,-0.852,-3.113,1.831,5.676
0.391,0.343,-0.858,-4.150,2.502,7.080
0.383,0.359,-0.868,-4.700,4.517,8.362
0.387,0.371,-0.887,-4.761,6.897,8.789
0.381,0.382,-0.899,-3.296,8.789,8.362
0.394,0.390,-0.901,-1.831,8.667,8.301
0.398,0.380,-0.903,-1.099,6.836,6.470
0.405,0.369,-0.904,-0.488,4.456,4.028
0.410,0.360,-0.898,0.061,2.502,3.113
0.409,0.350,-0.889,1.465,2.075,2.869
0.402,0.341,-0.875,2.563,2.258,3.540
0.399,0.337,-0.864,2.380,2.197,4.700
0.384,0.339,-0.863,2.014,2.869,5.188
0.382,0.350,-0.862,1.160,4.517,6.531
0.385,0.359,-0.870,1.953,8.179,7.935
0.379,0.364,-0.894,3.967,11.353,8.423
0.382,0.378,-0.863,7.080,13.611,8.240
0.386,0.376,-0.874,6.714,11.353,7.385
0.389,0.368,-0.865,5.554,8.362,4.944
0.391,0.358,-0.874,5.371,5.005,2.197
0.387,0.348,-0.850,3.906,3.357,2.197
0.380,0.347,-0.858,2.258,3.906,3.357
0.376,0.345,-0.860,2.075,5.188,5.005
0.373,0.354,-0.865,4.028,8.362,6.348
0.371,0.357,-0.874,4.822,12.390,8.057
0.380,0.366,-0.867,6.226,18.311,10.986
0.377,0.381,-0.876,7.874,23.437,13.611
0.371,0.376,-0.864,5.005,25.208,15.076
0.355,0.361,-0.870,-2.991,22.766,14.343
0.340,0.352,-0.863,-8.179,16.663,11.353
0.348,0.375,-0.867,-6.897,11.597,8.057

-0.354,0.693,-2.253,78.857,31.006,11.780
-0.406,0.738,-2.437,113.647,36.316,-3.052
-0.436,0.677,-2.565,155.334,34.668,-29.480
-0.426,0.522,-2.605,199.341,26.611,-61.218
-0.398,0.313,-2.566,236.938,9.216,-91.003
-0.394,0.047,-2.489,263.000,-18.005,-119.873
-0.421,-0.220,-2.407,277.527,-47.668,-143.311
-0.443,-0.399,-2.338,283.081,-67.444,-152.222
-0.431,-0.358,-2.253,290.161,-74.097,-149.414
-0.375,-0.252,-2.170,302.917,-74.158,-147.583
-0.269,-0.171,-2.017,323.242,-81.787,-152.405
-0.218,-0.237,-1.799,350.281,-99.487,-161.743
-0.152,-0.282,-1.497,374.512,-121.399,-168.823
-0.048,-0.288,-1.171,387.756,-143.799,-174.255
-0.013,-0.354,-0.931,383.911,-168.152,-178.955
0.062,-0.354,-0.726,373.474,-187.012,-177.917
0.088,-0.367,-0.569,363.098,-200.623,-170.105
0.064,-0.366,-0.484,354.004,-205.505,-156.128
0.049,-0.290,-0.437,354.004,-194.275,-140.076
0.091,-0.221,-0.367,368.469,-175.842,-126.404
0.108,-0.255,-0.279,386.841,-159.729,-116.577
0.136,-0.348,-0.137,402.954,-147.156,-111.694
0.174,-0.396,0.041,411.438,-137.878,-108.643
0.199,-0.455,0.219,411.194,-128.845,-105.652
0.238,-0.572,0.394,405.823,-113.525,-100.647
0.313,-0.670,0.543,401.978,-87.463,-91.553
0.429,-0.766,0.668,401.733,-58.594,-82.092
0.587,-0.947,0.855,405.457,-41.565,-79.651
0.800,-1.199,1.193,407.837,-47.607,-91.919
1.062,-1.526,1.782,410.217,-84.106,-121.155
1.120,-2.515,2.617,411.255,-155.090,-164.673
0.747,-3.391,3.646,378.479,-261.353,-201.660
0.365,-3.557,4.000,290.100,-350.220,-215.820
0.331,-3.066,4.000,143.738,-330.688,-186.035
0.292,-2.727,4.000,-8.362,-178.711,-112.610
0.446,-2.124,3.127,-113.892,-3.052,-30.151
0.428,-1.397,2.097,-170.166,109.619,63.110
0.313,-0.693,1.361,-183.411,162.476,124.268
0.276,-0.158,0.898,-186.523,160.034,135.315
0.256,0.094,0.660,-192.505,119.141,104.309
0.313,0.139,0.641,-199.524,68.604,54.932
0.367,0.108,0.686,-210.876,22.888,11.475
0.427,0.078,0.759,-222.595,-9.766,-17.578
0.470,0.045,0.809,-229.126,-24.109,-32.776
0.507,0.012,0.852,-227.783,-15.991,-30.640
0.527,-0.029,0.852,-219.360,11.597,-12.878
0.541,-0.041,0.812,-211.914,45.654,13.184
0.524,-0.029,0.722,-210.876,74.768,37.354
0.521,0.008,0.617,-214.905,93.323,54.138
0.503,0.057,0.506,-219.727,102.722,63.660
0.485,0.131,0.408,-219.971,107.056,67.078
0.481,0.211,0.333,-216.431,108.337,66.528
0.487,0.283,0.259,-213.440,106.812,62.378
0.491,0.339,0.200,-208.740,102.966,55.542
0.507,0.311,0.149,-202.454,97.656,48.706
0.522,0.234,0.097,-199.524,91.492,46.021
0.499,0.200,0.029,-204.407,86.365,52.490
0.463,0.188,-0.077,-213.867,86.365,65.552
0.410,0.250,-0.168,-220.032,89.478,80.322
0.340,0.329,-0.249,-221.497,96.008,92.346
0.291,0.450,-0.345,-216.736,106.689,99.731
0.279,0.574,-0.427,-203.674,115.173,98.816
0.298,0.702,-0.484,-187.805,113.525,88.074
0.327,0.710,-0.516,-174.622,98.450,67.200
0.354,0.631,-0.501,-162.170,76.355,41.321
0.366,0.511,-0.458,-150.208,62.378,26.001
0.353,0.407,-0.445,-146.179,62.256,26.611
0.347,0.317,-0.435,-148.193,71.472,38.574
0.334,0.268,-0.457,-158.569,85.327,56.702
0.320,0.321,-0.528,-177.002,94.299,75.623
0.302,0.406,-0.618,-192.566,97.290,86.609
0.297,0.474,-0.690,-198.669,95.032,87.646
0.301,0.530,-0.749,-196.716,90.576,82.703
0.315,0.563,-0.790,-189.026,85.632,76.355
0.290,0.539,-0.827,-181.335,80.566,71.411
0.215,0.516,-0.862,-172.852,80.261,71.289
0.152,0.536,-0.912,-163.086,89.111,77.393
0.145,0.581,-0.984,-154.846,98.633,80.933
0.205,0.614,-1.047,-150.757,93.994,72.998
0.302,0.624,-1.072,-151.428,70.923,56.030
0.393,0.603,-1.041,-153.503,36.743,35.828
0.441,0.523,-0.962,-154.541,3.784,18.555
0.388,0.398,-0.899,-158.142,-15.747,13.489
0.271,0.319,-0.901,-160.034,-11.353,21.301
0.146,0.325,-0.951,-156.860,15.564,43.213
0.094,0.427,-1.057,-151.123,55.969,68.787
0.100,0.530,-1.208,-145.081,83.252,79.163
0.183,0.624,-1.334,-137.634,87.158,73.853
0.272,0.661,-1.399,-129.150,69.397,60.364
0.358,0.644,-1.390,-119.080,37.231,44.006
0.414,0.597,-1.319,-108.459,1.953,29.419
0.381,0.519,-1.202,-99.976,-27.344,18.677
0.286,0.452,-1.108,-95.642,-40.100,16.296
0.102,0.404,-1.076,-94.604,-26.733,26.917
0.186,0.551,-1.164,-93.201,1.465,46.265
-0.004,0.559,-1.222,-94.299,35.583,49.927
0.055,0.684,-1.354,-91.797,54.077,50.842
0.049,0.746,-1.473,-80.811,60.669,47.241
0.140,0.811,-1.561,-61.584,54.443,39.612
0.179,0.816,-1.591,-44.739,39.001,25.085
0.229,0.774,-1.568,-31.555,16.418,6.348
0.273,0.721,-1.491,-19.836,-7.141,-8.728
0.305,0.657,-1.381,-8.972,-26.123,-17.883
0.322,0.615,-1.254,1.526,-38.635,-20.386
0.301,0.602,-1.122,10.132,-42.725,-15.808
0.259,0.584,-1.013,16.663,-38.513,-10.193
0.228,0.559,-0.932,21.545,-30.457,-7.263
0.199,0.551,-0.859,24.536,-24.353,-5.737
0.199,0.509,-0.815,21.179,-20.142,-4.272
0.213,0.501,-0.782,22.827,-15.015,-5.249
0.247,0.476,-0.771,25.330,-11.292,-6.714
0.271,0.462,-0.745,27.649,-10.559,-7.629
0.298,0.476,-0.714,30.273,-11.963,-7.568
0.304,0.455,-0.689,28.198,-14.954,-7.751
0.307,0.431,-0.659,24.902,-16.541,-8.850
0.298,0.409,-0.637,20.569,-14.893,-7.935
0.295,0.411,-0.627,15.320,-10.803,-5.188
0.295,0.418,-0.635,9.399,-5.920,-2.441
0.294,0.430,-0.661,3.906,-1.953,0.061

0.058,0.693,-1.892,170.349,11.169,-26.733
0.110,0.695,-1.800,194.763,-7.141,-47.485
0.154,0.599,-1.676,214.844,-35.828,-70.923
0.177,0.466,-1.523,230.408,-64.697,-88.806
0.164,0.345,-1.398,240.051,-82.214,-92.468
0.133,0.201,-1.331,245.361,-84.961,-86.304
0.109,0.183,-1.305,245.178,-77.209,-72.754
0.112,0.284,-1.278,245.911,-66.833,-58.472
0.138,0.380,-1.214,254.883,-64.514,-54.016
0.106,0.391,-1.164,261.047,-70.129,-54.871
0.113,0.425,-1.072,274.170,-80.933,-62.988
0.106,0.400,-0.977,288.940,-101.440,-78.247
0.094,0.364,-0.879,300.720,-125.244,-94.360
0.057,0.271,-0.805,309.753,-146.484,-108.459
0.063,0.206,-0.701,319.702,-163.147,-119.019
0.056,0.097,-0.592,329.834,-174.805,-124.146
0.053,-0.048,-0.470,335.815,-183.167,-123.840
0.018,-0.119,-0.345,336.487,-186.584,-116.943
0.011,-0.154,-0.235,332.031,-182.129,-103.210
0.007,-0.131,-0.124,330.383,-170.898,-88.684
-0.020,-0.122,-0.040,327.332,-161.682,-77.637
-0.065,-0.118,-0.001,328.125,-150.635,-72.449
-0.064,-0.149,0.046,335.510,-135.559,-70.679
-0.018,-0.209,0.156,343.140,-121.094,-70.313
0.000,-0.260,0.290,346.069,-110.596,-68.298
0.047,-0.311,0.426,347.900,-94.177,-63.782
0.109,-0.421,0.551,350.952,-71.045,-59.265
0.215,-0.554,0.689,353.149,-47.729,-54.199
0.334,-0.698,0.852,351.257,-33.997,-50.964
0.478,-0.859,1.073,345.398,-35.400,-54.993
0.623,-1.051,1.409,338.379,-51.514,-68.909
0.754,-1.435,1.893,331.787,-83.313,-93.750
0.860,-2.158,2.557,318.176,-131.592,-126.099
0.766,-2.732,3.315,280.762,-193.665,-149.902
0.605,-2.861,3.930,202.759,-234.619,-150.757
0.279,-2.790,3.983,96.375,-205.078,-122.437
0.524,-2.175,3.417,-23.987,-102.478,-47.729
0.391,-1.614,2.627,-107.971,13.550,31.616
0.284,-0.996,1.884,-153.625,78.186,83.557
0.178,-0.456,1.324,-181.396,102.478,111.267
0.126,-0.066,0.964,-190.063,96.680,109.680
0.118,0.143,0.801,-185.791,73.486,87.341
0.146,0.217,0.759,-176.453,48.035,57.495
0.184,0.245,0.762,-171.326,26.245,32.288
0.236,0.280,0.804,-171.021,9.644,14.771
0.263,0.295,0.824,-171.997,3.357,4.761
0.293,0.300,0.824,-168.823,9.827,2.441
0.306,0.276,0.805,-161.743,24.780,7.019
0.326,0.267,0.804,-152.161,42.114,14.771
0.344,0.252,0.796,-144.775,58.960,21.362
0.369,0.238,0.755,-144.348,71.411,25.818
0.394,0.249,0.713,-147.156,78.979,27.039
0.425,0.253,0.660,-152.100,80.872,25.452
0.451,0.261,0.610,-158.508,78.918,22.888
0.471,0.272,0.571,-162.903,75.867,20.630
0.480,0.294,0.542,-164.185,73.914,19.104
0.483,0.302,0.524,-163.330,73.303,18.188
0.484,0.293,0.502,-161.682,74.707,18.555
0.484,0.266,0.492,-160.156,77.881,21.240
0.476,0.240,0.463,-160.339,83.496,26.184
0.452,0.228,0.412,-163.269,89.905,32.410
0.448,0.233,0.361,-166.077,95.642,37.354
0.442,0.234,0.294,-170.593,99.548,40.833
0.446,0.245,0.240,-175.110,100.708,42.480
0.450,0.263,0.197,-179.260,100.586,43.335
0.450,0.293,0.165,-182.434,100.586,45.105
0.453,0.316,0.140,-185.669,100.769,46.814
0.445,0.331,0.111,-190.247,100.830,48.584
0.434,0.326,0.072,-194.214,101.807,51.453
0.415,0.297,0.024,-196.228,106.140,57.617
0.412,0.304,-0.028,-198.853,112.915,66.772
0.385,0.299,-0.120,-205.383,117.737,75.867
0.370,0.318,-0.202,-211.853,117.065,78.979
0.370,0.344,-0.259,-214.233,110.840,77.576
0.349,0.352,-0.310,-214.355,105.042,75.500
0.339,0.375,-0.344,-213.501,102.966,74.768
0.333,0.403,-0.379,-212.952,103.760,76.172
0.341,0.452,-0.414,-211.365,104.248,76.660
0.344,0.481,-0.464,-211.548,100.098,74.585
0.345,0.484,-0.497,-212.158,89.905,67.810
0.343,0.427,-0.523,-214.355,77.881,60.730
0.286,0.297,-0.564,-219.299,73.486,60.913
0.227,0.273,-0.624,-221.924,83.130,70.313
0.193,0.307,-0.712,-224.243,99.304,82.703
0.152,0.338,-0.833,-227.112,111.755,89.478
0.167,0.411,-0.938,-226.807,113.647,88.928
0.219,0.468,-1.010,-222.961,101.440,79.651
0.286,0.468,-1.073,-221.069,75.867,65.491
0.313,0.430,-1.101,-219.055,44.922,50.659
0.216,0.320,-1.137,-216.187,20.752,42.664
0.076,0.254,-1.210,-212.463,18.738,45.898
-0.032,0.278,-1.319,-205.994,38.269,55.908
-0.047,0.381,-1.428,-196.106,62.927,63.721
0.025,0.479,-1.538,-188.538,73.608,61.829
0.142,0.547,-1.610,-183.655,62.744,49.133
0.275,0.568,-1.610,-177.551,34.119,32.837
0.352,0.532,-1.553,-167.175,1.953,17.517
0.401,0.470,-1.457,-153.320,-25.696,9.399
0.384,0.414,-1.333,-139.160,-45.105,9.888
0.311,0.371,-1.248,-129.333,-50.354,15.198
0.222,0.339,-1.200,-123.291,-39.917,23.437
0.143,0.356,-1.193,-115.417,-19.775,32.043
0.115,0.389,-1.193,-104.553,-0.061,37.048
0.104,0.426,-1.231,-96.191,13.123,36.377
0.135,0.446,-1.289,-89.294,20.691,29.541
0.198,0.445,-1.306,-81.848,22.095,22.034
0.070,0.325,-1.204,-69.336,18.372,14.343
0.400,0.428,-1.425,-53.162,3.723,14.771
0.197,0.412,-1.333,-39.612,11.597,19.104
0.282,0.435,-1.300,-24.414,4.150,13.916
0.219,0.428,-1.259,-20.569,-1.587,11.963
0.238,0.455,-1.212,-15.869,-7.446,9.583
0.214,0.463,-1.184,-11.536,-8.362,6.592
0.236,0.469,-1.149,-7.141,-6.958,5.066
0.240,0.461,-1.134,-2.319,-5.005,3.113
0.256,0.478,-1.098,2.502,-3.235,2.319
0.282,0.433,-1.078,3.479,-3.967,2.014
0.276,0.406,-1.057,4.456,-6.958,-0.183
0.308,0.419,-1.006,7.935,-8.911,-2.075