aX,aY,aZ,gX,gY,gZ
0.590,0.917,1.567,54.138,-44.922,14.404
0.545,0.983,1.668,65.552,-55.115,14.343
0.425,1.011,1.730,76.660,-60.303,17.517
0.314,1.094,1.775,88.562,-57.556,22.522
0.216,1.197,1.791,93.079,-49.438,26.428
0.174,1.385,1.800,90.454,-44.495,27.344
0.167,1.645,1.819,88.135,-45.349,28.320
0.214,1.929,1.833,88.440,-47.607,27.954
0.197,2.036,1.765,93.018,-42.419,20.325
0.076,1.987,1.594,96.802,-28.870,0.549
-0.101,1.865,1.363,101.624,-15.137,-18.555
-0.299,1.621,1.073,101.013,-2.808,-25.635
-0.607,1.245,0.741,91.064,9.338,-18.555
-1.106,0.840,0.336,72.266,17.151,-0.610
-1.605,0.345,-0.142,52.979,22.400,0.305
-1.963,-0.315,-0.606,45.105,20.813,-48.828
-2.228,-1.217,-1.030,49.316,2.991,-148.193
-2.491,-2.254,-1.306,64.270,-27.832,-267.578
-2.604,-3.468,-1.446,92.346,-54.626,-360.474
-2.428,-4.000,-1.280,130.432,-73.181,-432.556
-1.996,-4.000,-0.632,169.983,-93.750,-482.056
-1.123,-4.000,0.266,200.134,-112.549,-482.910
0.399,-3.988,0.692,237.610,-41.931,-458.923
1.488,-3.468,0.481,198.120,133.850,-385.315
2.271,-2.937,0.031,110.107,263.306,-258.301
2.697,-2.428,-0.238,44.006,236.633,-149.902
2.409,-2.152,-0.242,-11.963,82.703,-66.528
1.454,-1.941,-0.064,-69.702,-85.327,35.767
0.404,-1.742,0.208,-110.474,-170.593,150.024
-0.588,-1.668,0.476,-130.371,-152.832,240.295
-1.427,-1.551,0.782,-129.028,-101.135,286.926
-1.733,-1.436,0.767,-117.493,-64.392,281.555
-1.711,-1.552,0.489,-134.521,-27.771,233.276
-1.579,-1.558,0.113,-174.805,-9.521,189.270
-1.548,-1.390,-0.197,-202.148,-5.188,183.228
-1.496,-1.155,-0.308,-196.045,-4.456,186.462
-1.464,-0.912,-0.295,-167.908,-8.057,178.101
-1.374,-0.713,-0.222,-140.442,-12.939,164.368
-1.252,-0.544,-0.087,-121.277,-26.550,141.724
-1.076,-0.405,0.051,-107.117,-41.931,117.371
-0.951,-0.298,0.234,-96.680,-49.377,97.656
-0.823,-0.278,0.324,-85.205,-46.631,86.731
-0.662,-0.156,0.510,-80.872,-37.415,86.365
-0.600,-0.109,0.634,-71.594,-24.658,89.844
-0.554,-0.080,0.744,-61.951,-7.446,91.370
-0.514,-0.017,0.788,-53.040,2.686,95.825
-0.567,0.001,0.855,-49.866,11.536,101.196
-0.547,0.065,0.837,-44.006,27.161,105.469
-0.564,0.143,0.869,-36.743,43.091,105.164
-0.481,0.264,0.919,-28.992,45.715,97.046
-0.373,0.358,0.955,-23.682,41.077,80.261
-0.275,0.381,0.952,-22.766,30.884,58.411
-0.205,0.323,0.974,-22.644,14.954,37.354
-0.137,0.262,1.005,-20.752,-3.601,21.362
-0.111,0.206,1.049,-16.541,-17.212,13.672
-0.106,0.131,1.071,-10.498,-20.691,13.245
-0.140,0.107,1.069,-4.028,-14.648,17.334
-0.160,0.105,1.072,-1.465,-2.686,23.743
-0.151,0.162,1.094,-1.465,11.169,29.846
-0.134,0.214,1.102,-1.648,25.085,33.447
-0.098,0.266,1.085,-3.296,35.278,32.715
-0.053,0.269,1.062,-4.761,39.673,29.053
-0.004,0.257,1.065,-5.249,36.743,20.691
0.037,0.251,1.087,-4.089,27.161,9.216
0.042,0.210,1.095,-5.249,16.235,-0.671
0.042,0.132,1.081,-7.751,7.629,-6.165
0.029,0.072,1.075,-8.484,2.319,-6.470
0.006,0.033,1.072,-8.484,0.244,-0.183
-0.030,0.014,1.081,-9.521,3.479,12.451
-0.049,0.082,1.122,-9.094,10.864,26.794
-0.076,0.148,1.154,-7.202,22.034,36.194
-0.087,0.193,1.155,-8.179,34.973,36.926
-0.071,0.228,1.132,-12.024,42.053,30.884
-0.052,0.252,1.112,-17.090,38.269,21.729
-0.054,0.259,1.097,-21.973,26.794,12.634
-0.072,0.254,1.098,-24.963,14.465,6.165
-0.100,0.237,1.099,-24.658,7.324,1.038
-0.121,0.203,1.099,-23.071,6.653,-2.563
-0.135,0.162,1.085,-20.935,8.667,-3.906
-0.128,0.130,1.073,-16.846,12.146,-3.052
-0.122,0.135,1.056,-11.597,16.479,0.671
-0.103,0.132,1.046,-7.690,20.630,6.714
-0.092,0.145,1.032,-5.005,23.437,12.146
-0.090,0.143,1.010,-2.930,23.865,14.587
-0.084,0.140,1.002,-1.038,22.034,12.695
-0.056,0.136,1.000,-0.183,18.494,7.263
-0.033,0.118,0.998,0.488,14.282,1.709
-0.026,0.090,0.996,1.831,10.620,-1.709
-0.027,0.048,0.997,4.272,8.179,-3.540
-0.014,-0.005,0.995,7.141,7.080,-3.235
-0.001,-0.041,1.001,10.315,5.859,-1.282
0.000,-0.070,1.012,12.878,4.517,2.258
0.007,-0.089,1.019,14.038,5.005,6.897
0.007,-0.100,1.030,13.916,5.493,9.827
-0.006,-0.110,1.042,12.329,5.920,11.536
-0.017,-0.089,1.049,10.742,7.996,10.315
-0.007,-0.086,1.016,8.789,10.742,6.836
-0.015,-0.087,0.990,6.287,10.498,2.930
-0.021,-0.089,0.973,2.930,6.531,1.831
-0.029,-0.100,0.969,-0.122,2.869,1.770
-0.029,-0.113,0.972,-0.671,1.404,0.977
-0.022,-0.138,0.978,0.488,1.709,0.183
-0.019,-0.149,0.987,1.038,1.892,0.488
-0.021,-0.155,0.988,0.977,2.075,2.380
-0.013,-0.157,0.987,1.465,2.991,4.456
-0.013,-0.151,0.981,2.075,4.028,6.897
-0.028,-0.154,0.970,2.380,5.005,8.606
-0.033,-0.148,0.956,3.357,5.676,9.094
-0.034,-0.138,0.957,3.662,5.676,8.911
-0.038,-0.134,0.956,2.563,5.066,8.362
-0.037,-0.122,0.954,1.709,4.822,7.812
-0.041,-0.114,0.951,1.038,4.883,7.263
-0.044,-0.105,0.951,1.038,5.005,6.958
-0.048,-0.105,0.955,1.038,4.822,6.165
-0.051,-0.111,0.955,0.610,4.150,5.188
-0.049,-0.114,0.958,0.183,3.296,3.845
-0.044,-0.117,0.953,-0.061,2.441,2.808
-0.039,-0.120,0.946,0.305,1.892,1.587
-0.035,-0.121,0.953,1.648,1.648,0.671

0.288,1.234,1.548,70.740,-9.155,-15.076
0.314,1.355,1.627,72.998,-15.198,-16.724
0.253,1.478,1.678,75.439,-12.451,-13.733
0.134,1.630,1.695,77.148,-3.296,2.319
-0.059,1.795,1.641,78.064,11.536,28.992
-0.298,1.889,1.490,76.782,26.794,52.124
-0.481,1.933,1.319,73.364,30.212,48.523
-0.594,1.882,1.177,68.604,13.916,7.690
-0.708,1.642,1.033,64.514,-14.954,-51.392
-0.875,1.219,0.850,62.012,-38.391,-97.412
-1.118,0.691,0.597,63.293,-37.170,-118.042
-1.417,0.066,0.282,62.744,-13.123,-115.051
-1.760,-0.606,-0.099,61.340,20.020,-110.168
-2.064,-1.481,-0.519,63.904,51.697,-139.221
-2.353,-2.409,-0.881,78.674,74.646,-216.614
-2.386,-3.492,-1.252,120.911,84.167,-306.458
-2.166,-4.000,-1.265,161.072,91.187,-390.015
-1.682,-4.000,-1.100,199.402,114.380,-454.102
-0.370,-4.000,-0.865,230.469,160.461,-482.910
1.082,-4.000,-0.789,227.661,202.148,-456.787
2.471,-3.151,-0.599,219.788,209.412,-398.926
3.816,-2.473,-0.094,215.271,109.253,-360.901
3.546,-2.909,0.286,173.035,-65.002,-338.501
1.988,-3.075,0.714,88.074,-250.000,-224.670
0.588,-2.453,1.202,9.277,-343.201,11.597
-0.728,-2.052,1.540,-79.590,-265.808,230.896
-2.182,-1.582,1.623,-139.099,-112.183,342.896
-2.485,-1.069,1.338,-139.282,19.226,370.911
-2.236,-0.885,0.758,-153.870,97.290,317.749
-1.834,-0.967,0.023,-202.209,83.374,239.441
-1.514,-0.934,-0.440,-230.835,19.165,178.589
-1.333,-0.830,-0.570,-223.145,-41.016,137.634
-1.228,-0.779,-0.477,-198.181,-76.843,107.361
-1.101,-0.692,-0.300,-173.645,-91.980,83.435
-0.986,-0.615,-0.156,-155.945,-86.914,71.045
-0.835,-0.518,-0.008,-139.771,-74.768,66.772
-0.735,-0.419,0.148,-123.779,-61.951,68.787
-0.667,-0.346,0.281,-110.168,-45.837,76.355
-0.604,-0.340,0.364,-95.947,-25.024,81.665
-0.518,-0.393,0.390,-82.153,-3.723,80.750
-0.450,-0.401,0.399,-71.350,10.254,74.463
-0.415,-0.329,0.524,-75.012,15.564,66.956
-0.361,-0.366,0.566,-74.219,0.549,65.002
-0.276,-0.328,0.625,-67.810,-5.798,58.228
-0.142,-0.280,0.729,-61.279,-8.728,50.537
-0.050,-0.271,0.813,-52.979,-6.897,52.368
0.001,-0.257,0.875,-41.565,2.747,61.768
0.017,-0.199,0.918,-29.480,13.855,72.266
-0.031,-0.161,0.937,-20.264,21.912,82.336
-0.055,-0.160,0.915,-15.137,28.381,88.257
-0.118,-0.166,0.906,-13.855,27.832,76.477
-0.132,-0.135,0.893,-16.479,19.531,56.396
-0.078,-0.034,0.964,-21.484,8.118,41.687
-0.005,0.082,1.031,-18.188,0.122,28.442
0.099,0.153,1.097,-11.719,-2.502,15.564
0.211,0.203,1.174,-5.615,-4.456,7.141
0.247,0.251,1.249,-1.343,-10.803,4.700
0.221,0.249,1.282,-2.014,-17.944,6.897
0.154,0.208,1.284,-4.333,-21.240,8.423
0.089,0.138,1.266,-6.165,-20.569,8.728
0.023,0.068,1.235,-10.254,-18.066,10.132
-0.028,-0.014,1.209,-14.771,-14.709,11.902
-0.084,-0.041,1.195,-17.761,-8.911,13.550
-0.096,-0.014,1.186,-22.461,0.122,15.625
-0.050,0.053,1.147,-31.494,14.526,19.409
-0.002,0.130,1.110,-36.987,26.917,23.804
0.046,0.214,1.081,-36.255,31.372,25.513
0.054,0.256,1.069,-33.569,26.245,23.865
0.028,0.268,1.070,-30.396,14.771,20.630
-0.009,0.257,1.089,-27.527,3.296,15.137
-0.036,0.220,1.099,-23.987,-2.930,9.949
-0.062,0.169,1.095,-20.386,-3.479,6.042
-0.086,0.090,1.074,-18.677,-1.709,5.859
-0.098,0.075,1.051,-15.503,0.916,7.202
-0.110,0.072,1.032,-11.719,4.761,10.071
-0.101,0.054,1.029,-9.399,9.460,16.235
-0.113,0.094,1.040,-7.324,13.306,24.048
-0.122,0.128,1.042,-6.775,17.029,30.090
-0.117,0.148,1.023,-7.385,21.484,31.006
-0.102,0.146,0.998,-7.019,24.170,28.809
-0.088,0.142,0.977,-4.700,23.376,24.658
-0.085,0.131,0.964,-1.892,20.203,20.142
-0.100,0.106,0.963,0.732,16.296,16.785
-0.104,0.067,0.967,1.892,12.207,13.611
-0.103,0.044,0.971,1.953,8.545,9.644
-0.105,0.026,0.974,1.648,5.493,5.310
-0.097,0.015,0.975,2.014,3.601,2.014
-0.074,-0.019,0.987,3.174,1.953,0.122
-0.061,-0.043,1.009,5.188,-0.244,-0.366
-0.055,-0.073,1.030,5.432,-1.709,1.465
-0.050,-0.079,1.044,4.517,-1.038,4.089
-0.055,-0.081,1.050,3.235,2.258,6.897
-0.055,-0.080,1.035,1.160,7.812,8.606
-0.058,-0.077,1.010,-0.916,13.000,9.155
-0.069,-0.075,0.978,-1.465,15.930,9.338
-0.073,-0.058,0.963,-0.732,16.174,7.996
-0.075,-0.061,0.959,0.061,15.320,5.554
-0.065,-0.071,0.967,1.099,13.123,2.075
-0.049,-0.089,0.979,2.014,10.254,-1.770
-0.027,-0.103,0.989,1.892,8.423,-4.395
-0.008,-0.127,0.996,1.099,7.874,-4.700
0.001,-0.128,1.000,0.854,8.423,-3.113
0.014,-0.129,1.000,0.305,10.254,0.427
0.006,-0.139,0.996,-0.854,11.536,4.028
0.016,-0.123,0.985,-0.610,12.390,6.226
0.010,-0.114,0.972,-0.854,12.329,8.118
0.002,-0.107,0.959,-1.038,11.414,9.521
-0.002,-0.102,0.955,-0.549,10.681,9.644
-0.007,-0.101,0.958,0.244,9.460,8.301
-0.011,-0.101,0.961,1.404,7.996,6.592
-0.016,-0.096,0.960,1.831,6.653,4.578
-0.023,-0.099,0.959,2.014,5.127,2.563
-0.017,-0.114,0.962,2.014,3.845,0.793
-0.008,-0.129,0.967,2.380,2.930,-0.549
-0.001,-0.137,0.969,3.174,2.319,-1.282
-0.000,-0.136,0.969,4.333,1.770,-1.282
-0.005,-0.141,0.964,4.517,1.343,-0.854
-0.003,-0.138,0.958,5.554,0.854,-0.610
0.007,-0.152,0.965,6.897,0.793,0.183

0.312,0.767,1.385,52.551,32.654,9.155
0.314,0.776,1.293,46.936,22.034,-5.310
0.289,0.795,1.211,42.297,4.639,-17.029
0.298,0.797,1.219,43.823,-10.437,-20.996
0.313,0.922,1.303,50.659,-18.433,-12.024
0.297,1.076,1.396,58.533,-15.808,10.132
0.254,1.189,1.428,62.927,2.686,32.959
0.144,1.186,1.339,62.866,31.616,43.396
-0.062,1.156,1.148,57.312,57.007,45.776
-0.359,1.162,0.907,47.668,72.021,51.392
-0.708,1.073,0.593,32.898,83.679,58.777
-1.085,0.845,0.277,20.081,94.971,48.096
-1.451,0.479,-0.049,19.348,103.760,12.817
-1.631,-0.088,-0.405,33.875,106.873,-42.969
-1.703,-0.832,-0.687,62.500,94.666,-124.756
-1.770,-1.603,-0.821,91.431,66.956,-216.980
-1.724,-2.526,-0.859,117.371,41.870,-284.058
-1.599,-3.251,-0.681,134.827,29.236,-329.590
-1.311,-3.640,-0.494,142.273,24.719,-351.990
-0.887,-3.742,-0.090,130.981,16.968,-360.596
-0.213,-3.526,0.291,126.465,20.325,-365.356
0.610,-3.151,0.453,117.249,63.538,-338.440
1.214,-2.740,0.335,88.562,137.207,-261.841
1.620,-2.245,0.180,59.204,184.265,-164.185
1.798,-1.838,0.049,36.011,164.185,-83.862
1.673,-1.619,-0.014,5.737,85.022,-26.184
1.217,-1.543,0.024,-31.677,-24.109,24.109
0.660,-1.442,0.219,-61.646,-127.930,71.228
0.071,-1.448,0.484,-81.482,-191.040,107.300
-0.462,-1.474,0.655,-86.853,-208.618,131.348
-0.852,-1.531,0.766,-83.923,-193.665,139.832
-0.979,-1.584,0.692,-95.093,-166.443,133.057
-1.035,-1.554,0.374,-124.634,-128.845,130.310
-1.051,-1.426,0.091,-150.818,-88.928,138.550
-1.088,-1.238,-0.130,-158.752,-62.683,148.682
-1.072,-1.048,-0.260,-151.489,-46.631,156.250
-1.050,-0.888,-0.293,-134.338,-41.748,153.015
-0.994,-0.725,-0.244,-112.244,-40.283,144.958
-0.905,-0.561,-0.131,-89.233,-35.583,133.789
-0.780,-0.467,0.017,-70.618,-29.846,121.277
-0.673,-0.400,0.187,-60.852,-30.273,110.046
-0.574,-0.353,0.354,-60.730,-37.415,97.534
-0.475,-0.349,0.512,-65.735,-47.607,86.487
-0.462,-0.342,0.653,-72.632,-58.411,82.825
-0.439,-0.287,0.758,-78.125,-63.110,82.397
-0.416,-0.161,0.866,-78.491,-58.228,81.604
-0.365,-0.043,0.957,-68.298,-40.100,78.613
-0.346,0.032,1.004,-52.551,-15.930,73.914
-0.287,0.088,1.054,-33.508,3.479,67.810
-0.255,0.137,1.115,-14.221,12.573,55.481
-0.232,0.128,1.165,-1.099,12.207,39.917
-0.231,0.083,1.216,5.554,5.310,23.682
-0.217,-0.009,1.252,6.470,-3.418,10.132
-0.205,-0.056,1.280,3.235,-9.888,0.366
-0.146,-0.034,1.311,-0.854,-10.254,-3.052
-0.063,0.070,1.344,-4.761,-3.418,-0.244
-0.030,0.132,1.335,-8.362,6.226,5.188
-0.000,0.196,1.311,-11.108,16.357,8.301
0.031,0.248,1.272,-12.146,23.865,7.324
0.037,0.243,1.223,-14.160,27.161,3.662
0.060,0.211,1.181,-15.259,26.794,-3.235
0.080,0.168,1.157,-15.686,25.269,-11.475
0.114,0.071,1.105,-15.076,23.376,-17.212
0.118,0.011,1.084,-11.475,22.705,-21.912
0.138,-0.010,1.069,-12.085,21.973,-17.761
0.137,-0.003,1.068,-16.846,22.949,-8.240
0.133,0.077,1.098,-20.142,24.719,2.380
0.105,0.128,1.120,-21.362,26.917,10.315
0.070,0.162,1.140,-23.376,27.588,13.794
0.037,0.190,1.163,-25.940,25.635,14.038
0.003,0.190,1.161,-29.602,24.536,10.681
-0.008,0.175,1.130,-33.020,24.292,4.700
-0.006,0.151,1.083,-35.706,23.132,-0.183
-0.008,0.139,1.040,-35.767,20.386,-3.113
-0.005,0.134,1.002,-32.776,17.273,-4.578
0.009,0.125,0.977,-27.893,16.235,-5.066
0.016,0.138,0.956,-21.240,16.296,-3.601
0.026,0.133,0.943,-14.771,17.029,0.366
0.035,0.164,0.955,-7.935,17.334,4.517
0.019,0.175,0.973,-1.953,16.235,7.202
-0.003,0.176,0.991,1.831,14.282,8.484
-0.025,0.164,1.001,4.150,12.085,7.324
-0.047,0.142,1.004,4.333,8.728,4.150
-0.063,0.107,1.005,3.601,4.700,0.000
-0.062,0.051,1.008,1.770,1.038,-4.456
-0.042,0.009,1.010,-0.366,-2.380,-7.935
-0.034,-0.022,1.005,-2.808,-5.432,-9.888
-0.015,-0.069,1.001,-5.249,-7.629,-9.888
0.017,-0.129,1.002,-6.409,-8.972,-8.240
0.043,-0.141,1.016,-6.104,-9.888,-3.967
0.045,-0.152,1.026,-7.568,-8.911,3.052
0.037,-0.149,1.029,-7.629,-6.042,9.705
0.021,-0.140,1.023,-6.897,-2.380,15.015
0.011,-0.122,1.011,-5.615,1.831,17.822
0.002,-0.107,1.000,-4.333,5.798,19.165
-0.008,-0.090,0.984,-3.784,8.057,19.043
-0.027,-0.070,0.959,-2.808,8.850,17.944
-0.033,-0.051,0.939,-1.160,9.155,14.221
-0.031,-0.049,0.926,0.549,8.179,9.338
-0.027,-0.053,0.927,3.174,6.409,4.761
-0.025,-0.067,0.936,4.761,4.578,2.258
-0.015,-0.082,0.948,4.883,4.089,1.465
-0.010,-0.087,0.954,4.761,4.578,2.136
-0.001,-0.095,0.958,4.089,5.737,4.211
-0.006,-0.091,0.959,3.235,6.531,7.080
-0.016,-0.081,0.958,1.709,6.958,9.277
-0.032,-0.074,0.951,0.732,6.836,10.315
-0.052,-0.063,0.947,1.343,6.104,9.888
-0.056,-0.052,0.945,3.357,5.798,7.019
-0.057,-0.060,0.945,5.249,4.700,3.113
-0.052,-0.073,0.952,6.775,2.869,-0.671
-0.047,-0.082,0.958,7.874,0.732,-3.723
-0.044,-0.105,0.967,8.606,-1.038,-5.371
-0.029,-0.126,0.984,9.277,-1.953,-6.042
-0.021,-0.144,0.999,9.155,-1.831,-5.798
-0.018,-0.154,1.001,8.057,-0.732,-5.066
-0.006,-0.169,1.008,6.836,1.221,-3.662
-0.008,-0.175,1.005,5.249,3.479,-0.671
-0.004,-0.172,1.000,3.967,5.493,2.136

0.290,0.946,1.659,101.440,-9.644,-6.897
0.285,0.932,1.677,112.610,3.967,-11.658
0.239,0.816,1.592,113.342,21.729,-20.386
0.198,0.725,1.479,105.225,31.311,-31.128
0.148,0.650,1.372,88.074,26.306,-40.466
0.084,0.562,1.282,63.477,9.155,-52.063
0.036,0.505,1.216,40.527,-12.390,-62.988
-0.045,0.423,1.110,24.048,-29.602,-68.115
-0.184,0.320,0.980,16.418,-38.513,-66.650
-0.421,0.264,0.837,20.142,-36.682,-52.490
-0.720,0.207,0.666,31.372,-16.724,-25.208
-1.072,0.081,0.440,46.265,21.973,0.488
-1.456,-0.162,0.147,54.504,68.848,5.676
-1.728,-0.525,-0.191,58.838,104.187,-25.635
-1.882,-1.072,-0.538,61.523,113.831,-105.957
-1.922,-1.719,-0.796,63.171,87.280,-218.384
-1.751,-2.432,-0.921,73.853,43.457,-320.862
-1.467,-3.091,-0.890,92.957,14.038,-388.245
-1.059,-3.423,-0.715,113.770,6.104,-402.832
-0.253,-3.161,-0.265,119.690,11.414,-368.835
0.495,-2.828,-0.217,149.414,45.227,-326.111
1.015,-2.349,-0.142,155.701,101.257,-272.827
1.408,-2.000,0.009,130.859,112.305,-190.369
1.542,-1.775,0.247,101.257,54.626,-125.610
1.353,-1.707,0.524,58.533,-49.500,-81.543
0.907,-1.658,0.780,-0.427,-145.447,-31.494
0.332,-1.498,0.909,-59.509,-187.012,35.889
-0.346,-1.353,1.047,-106.567,-162.964,112.671
-0.948,-1.194,1.084,-120.667,-114.380,168.457
-1.197,-1.101,1.019,-112.366,-61.218,186.646
-1.183,-1.142,0.801,-111.938,-17.761,172.729
-1.072,-1.179,0.499,-127.808,7.019,157.043
-0.983,-1.109,0.247,-143.127,14.587,153.625
-0.939,-0.972,0.092,-143.250,9.033,154.480
-0.901,-0.858,0.003,-129.395,-0.732,150.269
-0.859,-0.785,0.029,-108.887,-9.033,140.076
-0.808,-0.743,0.095,-84.534,-16.052,127.686
-0.752,-0.693,0.196,-63.843,-15.991,118.164
-0.667,-0.615,0.332,-50.293,-14.526,112.000
-0.558,-0.474,0.482,-47.913,-16.113,106.628
-0.474,-0.358,0.597,-53.894,-27.161,99.487
-0.429,-0.259,0.665,-57.373,-37.048,84.656
-0.374,-0.221,0.729,-61.340,-46.936,66.040
-0.344,-0.237,0.783,-63.293,-57.434,48.218
-0.339,-0.279,0.843,-59.753,-63.171,35.278
-0.337,-0.312,0.907,-52.185,-63.965,25.757
-0.324,-0.301,0.970,-43.091,-57.861,20.081
-0.256,-0.209,1.029,-28.748,-42.297,17.944
-0.184,-0.164,1.082,-14.465,-21.790,21.484
-0.099,-0.107,1.115,-2.197,-3.784,28.625
-0.056,-0.102,1.148,6.042,7.263,35.461
-0.059,-0.126,1.190,7.385,7.935,40.833
-0.099,-0.149,1.223,0.610,-0.610,41.382
-0.150,-0.175,1.225,-11.902,-12.878,33.081
-0.166,-0.218,1.187,-25.635,-22.827,19.409
-0.151,-0.263,1.141,-36.316,-28.320,4.517
-0.125,-0.302,1.083,-42.236,-30.029,-4.456
-0.097,-0.328,1.020,-45.776,-27.954,-7.690
-0.030,-0.294,0.992,-45.837,-20.996,-4.944
0.032,-0.239,0.997,-40.405,-12.268,-0.488
0.070,-0.174,1.008,-30.701,-4.761,4.883
0.080,-0.115,1.020,-21.545,-0.916,10.437
0.057,-0.074,1.027,-16.052,-0.610,14.038
0.021,-0.063,1.025,-14.282,-1.465,15.320
-0.023,-0.076,1.014,-15.198,-1.465,15.503
-0.057,-0.106,0.999,-17.700,-0.244,15.198
-0.073,-0.118,0.966,-22.400,2.380,13.916
-0.076,-0.115,0.924,-27.161,5.493,12.085
-0.035,-0.057,0.913,-29.297,8.911,10.864
0.010,0.017,0.930,-26.001,12.390,10.620
0.021,0.058,0.963,-19.226,12.695,11.719
0.011,0.102,1.007,-12.329,9.399,12.756
-0.018,0.126,1.050,-7.263,7.751,14.038
-0.048,0.131,1.073,-3.418,10.376,15.076
-0.085,0.094,1.073,-0.366,15.381,16.113
-0.114,0.028,1.059,1.587,20.447,16.357
-0.121,-0.039,1.039,-0.427,23.743,14.893
-0.098,-0.056,1.031,-4.761,24.353,11.475
-0.060,-0.045,1.010,-10.681,25.208,10.559
-0.028,-0.021,0.985,-15.625,26.917,12.817
-0.003,0.009,0.966,-17.090,26.489,15.320
0.020,0.042,0.955,-15.686,24.597,16.907
0.026,0.060,0.950,-13.245,22.095,18.066
0.014,0.072,0.947,-10.376,20.325,19.714
-0.010,0.068,0.937,-7.629,20.264,21.484
-0.037,0.061,0.921,-4.761,20.874,23.010
-0.070,0.053,0.911,-2.563,20.691,23.437
-0.097,0.034,0.910,-1.404,19.653,22.827
-0.104,0.019,0.920,-1.648,17.517,21.484
-0.096,0.019,0.939,-3.296,13.977,19.348
-0.097,0.014,0.947,-6.165,10.132,17.273
-0.092,0.009,0.954,-7.996,6.775,15.137
-0.076,-0.007,0.966,-8.667,3.418,11.963
-0.068,-0.022,0.980,-9.216,-0.549,9.399
-0.073,-0.040,0.991,-10.193,-2.808,7.935
-0.082,-0.057,0.995,-10.010,-3.052,7.690
-0.098,-0.071,0.997,-8.728,-2.136,7.935
-0.116,-0.088,1.001,-6.775,-0.488,8.606
-0.126,-0.101,1.006,-4.578,1.282,8.606
-0.133,-0.108,1.008,-3.601,2.014,7.935
-0.140,-0.157,1.008,-3.357,1.709,6.897
-0.126,-0.145,1.021,-2.136,1.648,3.174
-0.118,-0.163,1.022,-3.113,1.465,0.793
-0.106,-0.175,1.018,-5.310,1.038,-0.061
-0.089,-0.177,1.017,-6.226,0.549,-1.099
-0.083,-0.177,1.011,-7.568,-0.122,-0.916
-0.079,-0.171,1.001,-8.606,0.427,0.061
-0.083,-0.169,0.994,-8.667,2.563,2.197
-0.093,-0.164,0.983,-7.141,4.700,3.784
-0.099,-0.149,0.974,-4.395,7.507,5.188
-0.106,-0.141,0.967,-2.075,10.376,5.920
-0.104,-0.129,0.961,0.061,12.207,6.409
-0.095,-0.129,0.961,0.671,12.268,6.226
-0.085,-0.120,0.962,0.610,11.536,5.371
-0.081,-0.126,0.955,0.305,10.864,4.272
-0.069,-0.125,0.947,0.488,10.132,2.930
-0.059,-0.129,0.947,0.427,9.216,1.953
-0.057,-0.130,0.950,0.183,7.751,1.526
-0.057,-0.128,0.953,0.793,6.958,1.099

0.213,1.237,1.504,106.201,37.354,2.930
0.054,1.260,1.441,117.920,64.087,19.165
-0.217,1.059,1.209,115.723,95.337,36.011
-0.489,0.761,0.921,104.309,115.784,25.513
-0.689,0.460,0.664,87.708,103.027,-14.832
-0.832,0.135,0.449,64.026,61.890,-69.336
-0.977,-0.155,0.332,45.532,12.146,-130.371
-1.114,-0.500,0.188,40.405,-33.020,-178.223
-1.334,-0.979,-0.009,38.452,-48.218,-207.336
-1.568,-1.444,-0.227,46.875,-35.706,-229.309
-1.752,-1.926,-0.439,63.965,-4.883,-242.187
-1.793,-2.479,-0.624,80.566,29.419,-251.587
-1.638,-2.860,-0.682,101.685,52.856,-275.879
-1.265,-2.972,-0.491,121.643,65.491,-295.654
-0.583,-2.822,-0.250,138.977,73.914,-302.979
0.143,-2.500,-0.198,159.485,98.816,-306.641
0.674,-2.267,-0.356,145.630,136.414,-283.752
1.045,-2.129,-0.394,109.070,114.685,-247.009
1.285,-2.027,-0.109,85.999,4.639,-221.252
1.158,-1.997,0.339,61.401,-129.578,-198.608
0.838,-1.957,0.731,27.039,-216.980,-143.921
0.341,-1.823,0.997,-6.409,-231.018,-58.655
-0.238,-1.657,1.175,-36.255,-184.753,52.551
-0.718,-1.549,1.164,-47.546,-111.084,163.879
-1.098,-1.337,1.034,-50.537,-31.372,215.759
-1.198,-1.211,0.812,-61.584,28.564,237.793
-1.169,-1.162,0.511,-85.144,46.387,236.938
-1.137,-1.107,0.245,-119.446,32.166,223.022
-1.107,-1.003,0.046,-147.888,2.869,205.322
-1.071,-0.884,-0.059,-162.659,-26.550,183.960
-1.043,-0.788,-0.076,-167.419,-48.096,160.645
-0.984,-0.700,-0.038,-166.931,-62.805,142.273
-0.933,-0.616,0.046,-161.804,-69.519,130.005
-0.866,-0.542,0.147,-150.574,-68.481,118.591
-0.775,-0.484,0.252,-137.329,-61.768,107.971
-0.698,-0.480,0.334,-125.366,-56.091,100.830
-0.641,-0.501,0.411,-114.807,-52.979,95.703
-0.589,-0.508,0.498,-106.140,-49.072,89.661
-0.579,-0.513,0.549,-99.121,-43.579,83.252
-0.546,-0.478,0.622,-96.558,-30.823,79.834
-0.489,-0.405,0.692,-95.459,-27.527,77.942
-0.429,-0.323,0.760,-79.285,-23.499,77.087
-0.403,-0.254,0.807,-63.599,-17.334,74.524
-0.339,-0.214,0.831,-52.002,-14.587,71.289
-0.343,-0.190,0.858,-41.138,-12.939,63.965
-0.349,-0.209,0.889,-35.828,-12.756,58.594
-0.313,-0.258,0.895,-34.485,-14.832,56.702
-0.320,-0.294,0.914,-35.034,-15.869,57.007
-0.362,-0.301,0.917,-38.452,-16.663,54.932
-0.343,-0.258,0.925,-42.053,-10.071,52.124
-0.268,-0.159,0.958,-41.931,0.000,49.561
-0.176,-0.079,1.014,-38.208,7.996,50.293
-0.100,0.038,1.069,-30.884,7.996,47.913
-0.064,0.147,1.127,-24.902,0.916,38.452
-0.063,0.172,1.160,-27.039,-8.667,26.611
-0.072,0.161,1.176,-30.396,-18.188,13.123
-0.093,0.099,1.157,-32.349,-23.071,-0.610
-0.116,-0.022,1.109,-33.325,-22.400,-11.108
-0.106,-0.118,1.067,-34.119,-18.677,-17.883
-0.109,-0.181,1.037,-35.339,-13.611,-17.090
-0.119,-0.185,1.005,-38.208,-5.310,-7.935
-0.117,-0.126,0.972,-40.344,7.568,4.700
-0.092,-0.042,0.956,-38.513,23.499,16.174
-0.054,0.039,0.948,-31.433,35.645,22.095
-0.031,0.090,0.946,-22.888,40.527,23.193
-0.029,0.125,0.961,-13.611,37.964,21.118
-0.044,0.131,0.977,-5.859,33.447,18.005
-0.079,0.098,0.992,-2.869,30.151,15.625
-0.117,0.049,0.987,-2.563,28.381,12.939
-0.143,0.009,0.981,-4.578,26.733,9.705
-0.165,-0.021,0.969,-8.667,24.292,7.446
-0.178,-0.005,0.966,-14.648,22.156,7.690
-0.189,0.048,0.958,-19.226,22.583,9.033
-0.174,0.103,0.945,-21.057,26.123,8.911
-0.134,0.159,0.943,-19.165,28.198,6.653
-0.079,0.204,0.961,-14.465,26.611,1.404
-0.037,0.198,0.980,-9.155,23.071,-4.822
-0.007,0.192,1.000,-4.028,19.043,-11.353
-0.004,0.174,1.006,0.549,17.151,-16.785
-0.011,0.131,1.006,4.639,16.968,-20.447
-0.021,0.088,1.022,9.094,16.602,-22.522
-0.034,0.047,1.051,11.230,16.235,-21.851
-0.045,0.009,1.071,10.010,17.822,-18.555
-0.061,-0.028,1.077,6.958,21.484,-13.611
-0.049,-0.031,1.070,3.967,26.123,-10.010
-0.032,-0.037,1.047,0.122,29.114,-7.690
-0.012,-0.033,1.030,-3.235,27.954,-6.714
-0.008,-0.037,1.025,-5.493,23.376,-6.042
-0.011,-0.047,1.029,-7.812,17.517,-5.615
-0.023,-0.049,1.033,-9.277,13.062,-5.249
-0.039,-0.048,1.029,-10.376,10.864,-3.784
-0.061,-0.078,1.032,-11.658,10.071,-0.916
-0.090,-0.093,1.036,-11.353,9.949,0.610
-0.104,-0.094,1.037,-9.216,10.620,1.221
-0.104,-0.091,1.034,-7.202,11.963,0.916
-0.100,-0.085,1.029,-6.592,12.878,0.916
-0.088,-0.080,1.023,-6.897,13.428,0.854
-0.070,-0.073,1.017,-7.080,13.672,-0.061
-0.055,-0.070,1.003,-7.690,14.282,-0.183
-0.049,-0.062,0.992,-9.094,14.893,0.916
-0.043,-0.060,0.965,-9.094,15.137,2.625
-0.044,-0.053,0.949,-8.057,15.137,3.906
-0.045,-0.045,0.939,-6.348,13.977,5.371
-0.053,-0.039,0.933,-4.028,13.123,5.981
-0.064,-0.035,0.928,-1.587,12.817,5.737
-0.083,-0.041,0.926,0.061,12.573,5.554
-0.087,-0.040,0.926,2.197,12.207,3.845
-0.088,-0.048,0.926,3.418,11.597,0.305
-0.073,-0.060,0.933,4.517,10.071,-3.357
-0.055,-0.074,0.939,5.615,8.240,-5.859
-0.025,-0.083,0.952,6.165,7.080,-7.690
-0.000,-0.094,0.964,5.920,6.775,-7.996
0.013,-0.105,0.971,6.104,7.385,-7.019
0.020,-0.117,0.969,6.104,8.240,-5.859
0.024,-0.129,0.963,5.859,8.789,-5.005
0.021,-0.139,0.958,5.798,8.667,-4.150
0.013,-0.149,0.951,5.859,8.240,-3.662
0.014,-0.163,0.950,6.165,7.324,-3.479
0.014,-0.170,0.959,6.653,6.042,-3.296

-0.461,1.205,1.564,108.459,34.790,53.467
-0.721,1.278,1.393,89.417,48.218,55.847
-0.987,1.230,1.091,66.101,61.646,41.321
-1.132,1.090,0.787,51.270,69.824,1.526
-1.172,0.818,0.524,49.438,68.787,-58.655
-1.131,0.444,0.308,57.556,62.561,-124.146
-1.119,0.137,0.158,65.796,57.068,-170.654
-1.192,-0.230,-0.022,69.214,60.303,-183.960
-1.328,-0.537,-0.165,69.580,73.792,-177.490
-1.532,-0.936,-0.321,67.322,90.637,-157.776
-1.754,-1.452,-0.553,57.434,114.563,-157.837
-1.852,-2.096,-0.809,40.710,136.108,-192.322
-1.791,-2.802,-0.939,23.132,131.958,-254.028
-1.531,-3.313,-0.840,19.714,94.055,-323.975
-1.054,-3.445,-0.575,36.072,45.105,-372.498
-0.417,-3.072,-0.290,62.195,35.400,-378.357
0.305,-2.571,-0.277,85.083,90.027,-331.726
0.714,-2.148,-0.376,87.219,186.462,-244.690
1.016,-1.862,-0.515,72.693,239.502,-145.447
1.147,-1.530,-0.453,64.880,197.449,-79.163
1.124,-1.355,-0.246,47.180,80.811,-52.734
0.886,-1.362,0.066,16.541,-56.152,-48.401
0.546,-1.403,0.393,-13.367,-160.461,-34.119
0.190,-1.463,0.674,-35.095,-205.139,1.770
-0.241,-1.459,0.836,-45.044,-194.519,54.565
-0.572,-1.418,0.909,-43.640,-143.433,110.474
-0.713,-1.333,0.861,-41.809,-85.876,145.935
-0.773,-1.238,0.703,-53.406,-46.631,163.940
-0.829,-1.108,0.536,-70.190,-28.198,170.471
-0.857,-0.932,0.419,-81.177,-27.039,171.875
-0.894,-0.779,0.382,-83.008,-37.781,162.598
-0.896,-0.656,0.396,-78.735,-49.866,144.897
-0.869,-0.572,0.456,-70.923,-55.786,125.732
-0.790,-0.509,0.528,-61.707,-53.345,109.741
-0.686,-0.458,0.601,-54.138,-43.213,98.145
-0.571,-0.405,0.655,-48.279,-27.893,90.149
-0.463,-0.388,0.672,-45.532,-13.062,85.266
-0.352,-0.363,0.670,-43.884,-2.563,80.872
-0.274,-0.345,0.687,-44.739,3.540,74.768
-0.224,-0.365,0.715,-48.828,0.427,65.796
-0.186,-0.401,0.689,-47.607,-4.150,51.147
-0.148,-0.438,0.677,-46.265,-9.705,39.551
-0.116,-0.455,0.707,-41.443,-21.362,31.128
-0.101,-0.437,0.781,-34.241,-30.701,27.039
-0.087,-0.391,0.876,-26.001,-32.104,28.076
-0.076,-0.388,0.948,-16.907,-25.513,33.325
-0.073,-0.406,0.991,-7.751,-14.160,36.133
-0.045,-0.453,1.013,-2.502,-4.333,37.903
-0.018,-0.476,1.018,-2.808,0.427,38.513
-0.017,-0.483,1.005,-7.507,2.136,38.208
-0.035,-0.492,0.971,-15.198,0.732,37.842
-0.076,-0.518,0.915,-20.569,-2.747,33.875
-0.082,-0.472,0.912,-25.085,-8.118,29.114
-0.060,-0.368,0.958,-24.292,-12.146,27.466
-0.083,-0.361,0.991,-19.104,-13.245,24.902
-0.041,-0.315,1.036,-19.836,-15.381,24.353
-0.084,-0.322,1.059,-21.606,-16.479,26.184
-0.084,-0.343,1.077,-22.400,-16.541,24.048
-0.074,-0.378,1.086,-24.841,-15.320,22.339
-0.065,-0.394,1.068,-29.419,-12.695,23.437
-0.047,-0.446,1.038,-35.339,-10.437,25.574
-0.051,-0.441,1.009,-39.490,-9.155,27.100
-0.070,-0.409,0.994,-43.640,-9.033,30.518
-0.078,-0.352,0.981,-48.950,-6.531,32.959
-0.066,-0.273,0.978,-50.659,-3.357,33.997
-0.057,-0.213,0.980,-47.363,-1.587,34.363
-0.064,-0.185,0.982,-41.199,-2.380,32.471
-0.078,-0.186,0.996,-35.095,-5.005,28.687
-0.088,-0.205,1.021,-29.175,-8.301,23.376
-0.092,-0.231,1.043,-25.269,-9.460,18.250
-0.085,-0.270,1.041,-24.048,-7.690,15.503
-0.071,-0.302,1.028,-25.208,-4.822,16.174
-0.081,-0.301,1.005,-27.710,-2.686,19.653
-0.088,-0.276,0.983,-31.311,0.488,25.879
-0.096,-0.218,0.964,-33.020,5.005,32.043
-0.109,-0.174,0.951,-31.982,9.888,36.072
-0.097,-0.154,0.931,-28.992,14.832,36.682
-0.084,-0.152,0.920,-24.414,16.724,34.790
-0.068,-0.163,0.923,-20.264,15.442,31.677
-0.057,-0.174,0.942,-17.212,13.672,29.175
-0.056,-0.173,0.950,-15.198,13.977,29.114
-0.057,-0.173,0.936,-14.160,17.212,30.945
-0.055,-0.170,0.913,-10.925,22.766,33.325
-0.046,-0.164,0.900,-4.150,28.381,36.560
-0.029,-0.161,0.902,5.066,33.936,40.894
-0.015,-0.152,0.929,13.733,38.025,45.044
-0.023,-0.142,0.951,18.921,39.307,47.729
-0.028,-0.166,0.964,17.944,36.682,47.058
-0.017,-0.180,0.981,11.963,29.358,41.626
-0.015,-0.194,0.989,3.052,18.127,34.607
-0.016,-0.210,0.994,-6.653,7.690,28.320
-0.018,-0.224,0.996,-13.794,0.854,23.560
-0.021,-0.225,0.996,-16.602,-1.709,21.729
-0.033,-0.219,0.990,-16.479,0.549,23.315
-0.045,-0.196,0.985,-14.648,7.019,26.428
-0.039,-0.172,0.972,-10.559,15.442,28.809
-0.026,-0.162,0.957,-5.249,21.851,30.029
-0.022,-0.161,0.955,-1.648,24.658,30.823
-0.021,-0.164,0.954,0.549,25.269,30.579
-0.017,-0.179,0.952,0.488,24.963,29.480
-0.003,-0.201,0.950,-1.770,23.560,27.466
0.009,-0.214,0.947,-4.822,21.179,25.391
0.022,-0.230,0.939,-8.606,18.433,24.109
0.032,-0.226,0.934,-12.451,15.564,22.949
0.040,-0.208,0.929,-15.015,13.855,22.095
0.045,-0.182,0.925,-15.808,13.550,21.729
0.052,-0.156,0.922,-15.320,13.672,21.057
0.049,-0.130,0.926,-14.404,12.939,19.958
0.031,-0.114,0.928,-13.123,11.475,17.944
0.017,-0.101,0.934,-12.329,8.728,13.916
0.007,-0.093,0.935,-12.512,4.272,7.690
-0.002,-0.098,0.935,-13.000,-0.488,0.854
-0.007,-0.106,0.935,-12.085,-3.235,-4.944
0.000,-0.135,0.938,-9.338,-3.723,-9.216
0.016,-0.160,0.953,-6.165,-3.052,-11.963
0.029,-0.180,0.961,-2.563,-1.892,-11.292
0.047,-0.197,0.971,0.732,1.160,-9.460
0.067,-0.207,0.982,3.540,4.272,-6.531
0.077,-0.211,0.987,4.700,6.653,-3.723

0.497,1.187,1.558,54.810,-31.311,14.709
0.527,1.369,1.670,68.481,-33.264,13.428
0.481,1.551,1.774,82.153,-33.447,23.743
0.289,1.759,1.879,92.224,-24.780,52.979
-0.010,1.977,1.937,94.788,-7.202,107.117
-0.498,2.158,1.821,84.473,20.813,157.349
-0.965,2.223,1.509,60.547,51.514,177.917
-1.250,2.190,1.142,40.649,66.467,149.292
-1.392,2.034,0.760,32.837,60.547,72.083
-1.425,1.643,0.409,41.321,39.246,-31.006
-1.495,1.081,0.247,73.853,13.977,-134.094
-1.427,0.312,0.149,99.548,-7.324,-192.200
-1.468,-0.492,0.014,104.370,-7.751,-198.608
-1.594,-1.139,-0.229,96.680,12.268,-189.941
-1.784,-1.722,-0.562,84.229,40.344,-198.547
-1.877,-2.401,-0.911,81.665,53.650,-231.262
-1.922,-3.069,-1.120,87.952,46.875,-294.250
-1.853,-3.666,-1.060,98.694,22.217,-367.371
-1.563,-4.000,-0.685,117.493,-16.602,-435.547
-1.082,-4.000,-0.032,150.696,-49.866,-475.281
-0.379,-4.000,0.723,201.294,-30.884,-453.064
0.656,-3.643,1.051,234.924,93.506,-363.342
1.336,-2.946,0.595,206.238,316.406,-215.027
1.534,-2.236,-0.225,130.127,495.789,-38.696
1.609,-1.536,-0.934,46.997,515.503,74.402
1.565,-1.059,-1.261,-26.978,348.877,85.083
1.356,-1.015,-1.156,-66.650,98.083,46.875
0.977,-1.241,-0.682,-58.350,-121.704,27.832
0.351,-1.510,-0.034,-21.301,-245.422,62.134
-0.104,-1.620,0.580,13.367,-264.221,124.756
-0.752,-1.652,1.155,22.644,-232.361,145.752
-0.865,-1.561,1.290,-32.349,-184.143,140.564
-0.917,-1.401,1.021,-108.643,-124.756,132.935
-0.947,-1.099,0.717,-144.897,-77.820,134.277
-0.987,-0.761,0.533,-143.066,-50.476,141.785
-0.984,-0.455,0.484,-120.056,-41.748,140.320
-0.939,-0.261,0.498,-92.590,-45.349,123.474
-0.822,-0.145,0.548,-70.557,-48.645,97.595
-0.661,-0.108,0.605,-54.138,-46.143,71.350
-0.464,-0.128,0.667,-39.490,-39.917,52.856
-0.296,-0.128,0.751,-26.306,-36.865,48.218
-0.229,-0.115,0.847,-18.860,-37.354,54.993
-0.238,-0.082,0.920,-14.893,-35.828,62.561
-0.257,-0.072,0.970,-13.428,-28.992,63.599
-0.262,-0.104,0.982,-14.221,-22.888,54.260
-0.231,-0.123,0.985,-14.221,-21.179,39.307
-0.166,-0.117,1.011,-9.399,-24.231,22.949
-0.107,-0.106,1.067,-2.319,-28.259,9.460
-0.041,-0.129,1.121,1.404,-27.527,3.418
0.005,-0.151,1.151,4.395,-22.766,0.549
0.049,-0.208,1.166,7.141,-17.151,-0.671
0.064,-0.297,1.166,8.301,-14.771,-0.610
0.087,-0.395,1.177,6.653,-15.503,-0.427
0.048,-0.512,1.155,2.930,-16.113,0.305
0.082,-0.590,1.127,-7.446,-16.907,0.427
0.081,-0.649,1.078,-16.052,-14.709,1.160
0.107,-0.679,1.002,-19.531,-8.484,3.540
0.114,-0.607,0.962,-17.273,-1.953,3.601
0.166,-0.509,0.946,-14.404,4.761,9.460
0.161,-0.478,0.916,-12.695,11.292,17.029
0.165,-0.418,0.902,-9.949,14.160,21.851
0.184,-0.411,0.865,-8.911,12.634,23.254
0.104,-0.389,0.882,-11.719,5.981,15.808
0.122,-0.416,0.858,-22.095,-3.113,15.137
0.067,-0.423,0.842,-27.771,-10.498,11.902
0.059,-0.433,0.841,-31.250,-15.137,12.817
0.019,-0.439,0.832,-30.579,-15.381,14.465
0.008,-0.429,0.829,-25.818,-13.794,16.663
0.026,-0.409,0.835,-20.081,-10.925,19.897
0.021,-0.365,0.849,-13.916,-7.935,25.269
0.012,-0.301,0.873,-9.888,-5.737,31.372
-0.006,-0.265,0.896,-7.812,-4.211,35.034
-0.016,-0.245,0.912,-6.592,-3.235,34.607
-0.019,-0.244,0.923,-6.897,-3.052,31.921
-0.026,-0.253,0.932,-8.240,-4.333,28.259
-0.039,-0.257,0.943,-9.888,-7.996,24.841
-0.055,-0.253,0.946,-12.390,-12.207,22.583
-0.081,-0.297,0.939,-16.907,-14.709,21.484
-0.083,-0.314,0.937,-18.066,-14.954,19.287
-0.071,-0.309,0.932,-16.602,-13.611,19.775
-0.050,-0.315,0.927,-14.709,-10.559,22.400
-0.022,-0.296,0.934,-12.573,-6.958,26.001
-0.022,-0.265,0.935,-11.658,-5.066,30.090
-0.035,-0.236,0.936,-12.207,-3.906,32.837
-0.044,-0.205,0.935,-11.780,-3.662,31.982
-0.052,-0.199,0.930,-11.597,-3.845,28.259
-0.054,-0.212,0.925,-11.780,-4.944,23.804
-0.051,-0.233,0.922,-11.963,-7.812,19.836
-0.058,-0.256,0.916,-12.573,-11.108,18.005
-0.066,-0.276,0.915,-13.672,-13.184,17.151
-0.042,-0.288,0.923,-14.771,-14.282,15.137
-0.022,-0.287,0.925,-15.442,-14.771,15.503
-0.031,-0.281,0.930,-15.930,-15.259,19.043
-0.046,-0.260,0.941,-14.832,-13.428,22.766
-0.057,-0.235,0.939,-12.390,-9.644,25.513
-0.069,-0.217,0.938,-9.766,-6.226,26.733
-0.088,-0.203,0.937,-7.202,-4.639,26.978
-0.107,-0.196,0.936,-4.761,-3.540,25.757
-0.112,-0.192,0.939,-2.686,-2.441,22.827
-0.101,-0.189,0.950,-1.038,-2.136,19.104
-0.094,-0.195,0.958,-0.610,-2.563,15.869
-0.082,-0.215,0.967,-1.099,-3.662,13.184
-0.067,-0.234,0.981,-2.991,-5.554,11.292
-0.050,-0.241,0.995,-5.981,-7.690,10.742
-0.057,-0.247,0.994,-9.644,-9.155,12.451
-0.061,-0.253,0.986,-11.841,-7.996,14.771
-0.063,-0.243,0.982,-12.207,-5.493,16.418
-0.073,-0.233,0.977,-12.085,-3.967,17.761
-0.084,-0.215,0.973,-11.780,-3.052,18.188
-0.099,-0.196,0.966,-11.475,-1.953,17.517
-0.109,-0.176,0.963,-11.414,-0.122,16.663
-0.111,-0.168,0.959,-10.254,1.770,15.259
-0.106,-0.166,0.955,-8.484,2.991,13.428
-0.101,-0.166,0.956,-7.324,2.625,10.925
-0.093,-0.178,0.951,-7.019,2.319,8.484
-0.073,-0.193,0.947,-6.836,1.648,5.066
-0.057,-0.213,0.950,-6.042,0.916,2.014
-0.035,-0.219,0.956,-3.845,0.366,0.183
-0.026,-0.226,0.969,-1.831,0.671,1.282

0.284,0.821,1.867,49.133,-36.987,66.589
0.302,1.083,1.995,63.477,-19.226,78.918
0.282,1.232,1.995,72.021,4.578,91.187
0.230,1.276,1.904,66.956,27.161,96.252
0.038,1.255,1.777,51.270,34.973,84.656
-0.185,1.312,1.697,34.485,25.452,72.937
-0.457,1.404,1.611,22.156,17.029,71.655
-0.735,1.490,1.512,10.437,17.029,70.313
-1.008,1.534,1.365,-7.568,19.592,64.819
-1.313,1.495,1.139,-32.349,19.470,53.711
-1.570,1.380,0.799,-51.941,20.874,34.668
-1.844,1.025,0.298,-57.434,32.043,-4.150
-1.979,0.468,-0.192,-33.691,47.180,-76.233
-1.941,-0.348,-0.547,17.334,51.575,-181.152
-1.829,-1.439,-0.763,75.500,35.950,-284.485
-1.729,-2.655,-0.824,118.774,9.644,-343.140
-1.748,-3.603,-0.749,130.005,-6.165,-365.417
-1.596,-4.000,-0.558,123.962,-7.263,-375.793
-1.141,-4.000,-0.152,126.099,-9.399,-389.526
-0.492,-4.000,0.583,147.888,-12.085,-382.141
0.347,-3.907,1.102,159.729,49.377,-334.473
1.052,-3.105,0.721,131.287,234.070,-230.225
1.397,-2.345,-0.077,76.660,438.049,-72.693
1.584,-1.466,-0.799,31.494,494.385,54.382
1.609,-0.908,-1.208,-15.503,360.168,80.750
1.382,-0.880,-1.184,-54.993,108.032,43.396
0.956,-1.090,-0.717,-61.462,-132.080,20.630
0.346,-1.348,-0.119,-39.917,-269.409,45.776
-0.251,-1.522,0.460,-15.991,-295.532,93.018
-0.682,-1.591,0.841,-9.583,-255.615,125.916
-0.902,-1.653,0.879,-25.696,-194.824,131.714
-0.867,-1.602,0.612,-55.664,-132.385,129.028
-0.956,-1.421,0.370,-78.369,-91.187,127.686
-0.919,-1.159,0.251,-88.257,-67.688,135.925
-0.943,-0.821,0.253,-82.703,-64.026,139.648
-0.971,-0.528,0.343,-70.984,-72.388,132.446
-0.936,-0.343,0.473,-56.824,-85.510,111.877
-0.839,-0.244,0.618,-46.326,-89.355,89.111
-0.717,-0.226,0.756,-37.231,-81.177,70.801
-0.588,-0.208,0.866,-26.855,-61.401,60.181
-0.485,-0.209,0.959,-17.456,-35.828,60.364
-0.404,-0.201,1.037,-11.414,-11.902,66.223
-0.354,-0.159,1.087,-12.512,6.226,72.510
-0.316,-0.111,1.078,-17.212,20.203,74.402
-0.279,-0.076,1.049,-19.836,27.039,68.787
-0.247,-0.054,1.021,-18.616,25.696,58.960
-0.197,-0.005,1.035,-11.902,18.555,47.546
-0.157,0.016,1.081,-3.357,9.644,34.485
-0.115,0.018,1.131,2.686,2.747,21.057
-0.079,-0.010,1.168,5.737,-2.197,8.728
-0.052,-0.094,1.185,5.920,-5.920,-1.343
-0.022,-0.178,1.196,5.127,-8.789,-7.874
-0.010,-0.242,1.187,1.587,-8.850,-9.583
-0.021,-0.286,1.154,-4.150,-5.249,-6.897
-0.003,-0.299,1.104,-8.301,2.563,-2.563
0.058,-0.244,1.068,-8.728,12.085,2.441
0.100,-0.190,1.057,-6.042,18.311,7.324
0.127,-0.160,1.045,-3.784,21.118,11.169
0.132,-0.155,1.033,-2.197,19.531,10.498
0.135,-0.168,1.033,-1.648,13.977,5.615
0.132,-0.203,1.035,-3.235,5.493,-0.549
0.116,-0.244,1.032,-6.653,-2.380,-4.883
0.092,-0.293,1.021,-10.559,-6.836,-5.737
0.071,-0.345,1.000,-14.648,-8.057,-5.310
0.056,-0.398,0.972,-19.714,-6.470,-4.028
0.046,-0.399,0.937,-23.193,-3.540,0.488
0.060,-0.354,0.904,-23.315,1.770,7.446
0.062,-0.302,0.884,-21.606,9.766,16.724
0.087,-0.231,0.893,-17.212,16.174,23.743
0.098,-0.180,0.908,-12.939,18.494,25.757
0.103,-0.148,0.920,-10.620,16.846,25.208
0.095,-0.131,0.934,-10.437,10.681,22.095
0.080,-0.132,0.953,-12.085,1.770,18.555
0.052,-0.147,0.966,-14.404,-5.432,14.832
0.025,-0.178,0.977,-16.785,-10.254,11.230
0.005,-0.201,0.988,-17.578,-12.085,9.094
-0.019,-0.232,0.985,-18.188,-12.085,8.179
-0.019,-0.261,0.988,-18.127,-9.155,9.827
-0.021,-0.254,0.989,-18.433,-4.456,14.954
-0.025,-0.222,0.976,-20.752,1.038,21.240
-0.015,-0.173,0.943,-23.376,6.836,25.757
-0.011,-0.124,0.918,-24.475,9.094,27.161
-0.011,-0.086,0.911,-23.132,6.104,25.757
-0.023,-0.078,0.920,-20.813,1.404,21.179
-0.031,-0.083,0.934,-18.555,-2.136,15.808
-0.038,-0.099,0.950,-16.235,-3.357,10.803
-0.043,-0.118,0.954,-14.648,-3.418,7.202
-0.045,-0.144,0.951,-13.977,-3.052,5.432
-0.052,-0.166,0.942,-13.672,-1.892,6.470
-0.054,-0.173,0.933,-12.817,-0.061,8.240
-0.053,-0.170,0.927,-9.888,3.479,11.841
-0.042,-0.180,0.924,-7.568,7.568,14.832
-0.036,-0.157,0.924,-5.615,9.827,17.456
-0.034,-0.143,0.917,-6.226,10.254,18.616
-0.030,-0.132,0.910,-7.568,8.667,17.639
-0.025,-0.124,0.909,-8.118,5.066,15.137
-0.027,-0.130,0.913,-7.935,1.282,12.512
-0.033,-0.137,0.922,-7.202,-1.831,10.437
-0.042,-0.142,0.933,-6.104,-3.357,9.033
-0.054,-0.149,0.941,-5.310,-3.723,7.935
-0.071,-0.166,0.941,-4.639,-3.418,7.629
-0.074,-0.170,0.948,-2.869,-2.869,6.958
-0.071,-0.177,0.954,-1.160,-1.892,5.493
-0.051,-0.194,0.966,0.305,-0.671,4.578
-0.039,-0.190,0.974,0.183,-0.427,5.798
-0.035,-0.181,0.971,-1.953,-0.854,6.226
-0.031,-0.167,0.969,-4.517,-1.709,6.592
-0.033,-0.154,0.967,-6.348,-3.113,5.310
-0.047,-0.148,0.967,-7.996,-4.089,4.395
-0.063,-0.147,0.972,-8.606,-4.944,2.808
-0.078,-0.150,0.979,-8.362,-5.310,0.305
-0.090,-0.156,0.981,-7.446,-4.395,-1.221
-0.095,-0.163,0.982,-6.287,-2.747,-3.479
-0.094,-0.176,0.978,-4.700,-0.061,-5.005
-0.079,-0.174,0.980,-1.709,3.418,-5.798
-0.068,-0.169,0.987,1.526,6.958,-5.920
-0.062,-0.162,0.982,3.723,10.498,-5.493
-0.042,-0.167,0.979,4.517,12.756,-5.127
-0.036,-0.160,0.973,4.272,13.611,-3.479

0.464,0.729,1.678,146.057,3.723,48.279
0.263,0.815,1.737,158.264,35.400,84.717
-0.019,0.947,1.706,142.822,62.683,94.910
-0.256,1.007,1.584,101.868,62.744,83.801
-0.409,1.041,1.382,50.476,41.687,50.293
-0.513,1.074,1.218,17.517,8.911,-6.409
-0.508,1.184,1.173,13.062,-26.794,-63.110
-0.515,1.101,1.135,26.245,-44.128,-92.712
-0.524,0.930,1.067,50.049,-30.945,-93.994
-0.651,0.658,0.901,70.740,-1.038,-69.092
-0.916,0.354,0.635,69.092,25.696,-31.555
-1.297,0.029,0.306,50.049,41.382,-5.920
-1.698,-0.404,-0.064,25.513,48.279,-10.071
-2.093,-0.981,-0.463,7.874,45.959,-60.791
-2.376,-1.616,-0.844,7.385,37.415,-161.621
-2.364,-2.481,-1.129,22.522,23.743,-272.888
-2.089,-3.374,-1.117,53.162,1.404,-378.845
-1.660,-4.000,-0.835,91.187,-26.306,-458.008
-1.041,-4.000,-0.333,129.272,-45.410,-480.774
-0.006,-3.993,0.306,167.847,-40.222,-457.214
0.798,-3.479,0.660,179.016,11.169,-393.188
1.606,-2.797,0.827,131.714,93.994,-283.813
1.961,-2.306,0.668,95.093,136.780,-176.514
2.067,-1.986,0.498,35.828,108.215,-93.994
1.652,-1.821,0.293,-42.419,24.414,-5.554
0.992,-1.607,0.161,-104.187,-53.955,94.238
0.282,-1.432,0.202,-129.150,-94.849,181.519
-0.394,-1.400,0.327,-120.667,-109.985,236.328
-0.894,-1.394,0.492,-102.234,-117.004,251.648
-1.162,-1.461,0.572,-100.830,-114.014,232.971
-1.180,-1.496,0.480,-133.789,-102.600,205.078
-1.225,-1.349,0.269,-177.185,-95.947,191.101
-1.246,-1.121,0.083,-200.623,-88.928,189.819
-1.226,-0.901,-0.008,-194.824,-80.811,183.167
-1.184,-0.720,0.010,-168.701,-73.425,175.476
-1.141,-0.552,0.114,-134.949,-69.397,164.001
-1.068,-0.403,0.248,-103.333,-62.927,149.841
-0.962,-0.324,0.357,-77.881,-48.279,137.268
-0.817,-0.259,0.484,-60.303,-29.053,131.165
-0.716,-0.202,0.580,-47.974,-15.442,128.601
-0.635,-0.130,0.684,-38.086,-2.991,127.808
-0.597,-0.101,0.754,-32.227,6.348,124.207
-0.560,-0.088,0.800,-32.349,7.385,114.807
-0.550,-0.064,0.841,-34.729,-2.014,98.816
-0.544,-0.066,0.878,-38.879,-16.052,80.994
-0.537,-0.078,0.912,-41.809,-29.846,61.951
-0.512,-0.109,0.956,-40.894,-37.048,48.584
-0.478,-0.125,1.007,-36.255,-36.926,39.856
-0.414,-0.099,1.066,-28.259,-28.015,34.546
-0.360,-0.086,1.118,-19.043,-14.465,33.264
-0.303,-0.081,1.142,-12.329,-1.770,35.583
-0.292,-0.089,1.155,-8.606,7.263,38.696
-0.318,-0.110,1.181,-7.446,11.597,41.260
-0.262,-0.137,1.164,-7.690,15.564,43.701
-0.313,-0.179,1.129,-3.174,20.691,39.368
-0.318,-0.183,1.087,-3.296,21.729,31.433
-0.323,-0.210,1.026,-11.841,23.071,28.564
-0.258,-0.193,1.000,-17.151,25.757,26.123
-0.165,-0.138,0.984,-17.395,29.053,23.987
-0.079,-0.114,0.970,-15.625,30.701,21.606
0.025,-0.111,0.986,-13.489,27.710,20.691
0.031,-0.113,1.001,-10.132,20.325,17.517
0.056,-0.126,1.022,-12.573,10.315,14.282
0.042,-0.142,1.023,-18.921,0.977,13.489
0.026,-0.173,1.012,-26.062,-5.188,14.404
0.005,-0.179,1.001,-30.762,-9.155,13.489
-0.027,-0.181,0.994,-34.851,-10.132,12.695
-0.064,-0.185,0.989,-39.185,-7.935,13.184
-0.084,-0.169,0.971,-43.396,-3.479,15.198
-0.115,-0.130,0.932,-46.631,1.465,18.616
-0.137,-0.069,0.896,-47.791,7.690,22.156
-0.155,-0.014,0.863,-44.434,15.320,23.132
-0.133,0.047,0.830,-39.795,22.522,21.179
-0.120,0.084,0.787,-34.851,26.917,18.005
-0.097,0.113,0.751,-29.358,28.748,14.526
-0.081,0.115,0.731,-23.987,28.076,11.719
-0.079,0.108,0.742,-18.860,24.353,9.949
-0.090,0.109,0.784,-14.404,18.433,8.911
-0.125,0.100,0.829,-12.146,13.000,8.423
-0.148,0.098,0.875,-9.766,11.230,5.981
-0.154,0.099,0.913,-7.385,13.184,1.465
-0.156,0.121,0.936,-5.676,16.479,-2.014
-0.144,0.135,0.947,-2.686,20.020,-4.700
-0.125,0.177,0.952,2.808,23.071,-8.728
-0.111,0.163,0.947,5.432,24.536,-11.169
-0.081,0.156,0.952,8.301,24.719,-13.794
-0.062,0.139,0.963,11.169,22.705,-15.564
-0.057,0.104,0.982,13.123,19.653,-15.869
-0.048,0.073,1.014,14.832,16.235,-16.174
-0.046,0.046,1.046,16.418,12.329,-16.785
-0.043,0.017,1.076,16.907,8.301,-16.479
-0.056,0.005,1.108,17.212,4.517,-16.052
-0.076,-0.008,1.146,18.494,2.686,-17.151
-0.080,-0.021,1.181,19.104,5.005,-20.935
-0.057,-0.044,1.188,17.639,11.780,-27.527
-0.020,-0.057,1.164,15.442,19.653,-32.837
0.017,-0.086,1.126,12.573,25.696,-33.997
0.048,-0.092,1.095,11.597,28.503,-33.997
0.068,-0.112,1.078,11.780,28.870,-32.654
0.086,-0.122,1.075,12.329,27.771,-30.579
0.087,-0.124,1.078,12.085,25.513,-28.137
0.089,-0.132,1.077,10.681,22.827,-26.306
0.096,-0.144,1.075,9.033,19.775,-25.818
0.105,-0.147,1.070,6.592,16.785,-25.024
0.112,-0.148,1.056,3.296,14.709,-22.705
0.117,-0.150,1.031,0.488,14.038,-19.104
0.128,-0.141,0.999,-1.648,14.954,-13.855
0.109,-0.112,0.977,-3.235,16.296,-9.277
0.108,-0.098,0.952,-6.714,16.541,-2.563
0.098,-0.079,0.940,-8.362,16.479,2.380
0.079,-0.071,0.932,-8.118,15.991,6.104
0.063,-0.057,0.931,-6.653,14.404,8.850
0.048,-0.055,0.934,-5.310,10.376,10.132
0.018,-0.063,0.952,-4.028,5.432,10.010
0.018,-0.059,0.964,-1.526,0.366,8.240
0.016,-0.072,0.978,-0.427,-3.357,7.996
0.008,-0.092,0.982,-0.610,-5.188,9.094
0.010,-0.096,0.986,0.183,-6.042,10.620
0.001,-0.086,0.990,1.160,-5.432,12.329

-0.268,1.136,1.573,108.826,-12.146,66.956
-0.280,1.289,1.595,100.342,-0.732,48.462
-0.276,1.329,1.532,84.778,5.920,17.395
-0.373,1.221,1.381,60.791,10.498,-16.174
-0.513,1.079,1.194,43.884,11.475,-36.865
-0.679,0.895,1.000,36.560,18.555,-38.330
-0.914,0.703,0.831,33.813,34.790,-26.062
-1.175,0.447,0.592,30.884,53.894,1.831
-1.484,0.113,0.289,22.583,76.599,28.687
-1.769,-0.251,-0.065,12.085,100.220,32.104
-1.888,-0.714,-0.474,4.395,122.437,0.916
-1.898,-1.332,-0.931,-2.747,135.376,-71.960
-1.917,-1.953,-1.276,-3.967,138.977,-171.936
-1.734,-2.555,-1.430,21.729,134.460,-235.962
-1.459,-3.096,-1.402,56.396,128.723,-280.823
-1.033,-3.431,-1.263,89.233,132.446,-315.552
-0.497,-3.550,-1.115,119.812,134.460,-332.275
0.172,-3.262,-0.714,142.395,127.686,-329.590
0.691,-2.968,-0.374,146.362,91.858,-300.720
0.976,-2.574,0.024,140.564,48.584,-256.348
1.088,-2.221,0.554,121.216,-19.775,-201.416
0.966,-1.983,1.016,90.149,-104.553,-142.639
0.656,-1.858,1.344,53.772,-171.814,-86.182
0.259,-1.813,1.502,11.658,-195.007,-32.654
0.019,-1.778,1.454,-37.903,-169.189,25.513
-0.334,-1.763,1.268,-80.627,-126.770,74.829
-0.492,-1.735,1.006,-112.976,-85.815,115.723
-0.671,-1.667,0.714,-133.545,-51.147,143.372
-0.810,-1.537,0.468,-142.456,-19.470,165.344
-0.863,-1.321,0.266,-132.812,5.066,176.941
-0.977,-1.146,0.222,-115.417,14.954,168.335
-0.931,-0.975,0.179,-104.187,7.751,150.024
-0.884,-0.808,0.144,-100.220,-0.122,133.667
-0.833,-0.617,0.198,-96.252,-18.555,110.413
-0.754,-0.447,0.319,-93.628,-43.518,92.590
-0.669,-0.232,0.482,-88.379,-64.575,77.454
-0.583,-0.046,0.649,-82.520,-75.073,66.467
-0.501,0.076,0.801,-75.439,-68.604,56.091
-0.433,0.144,0.910,-66.223,-49.377,48.218
-0.383,0.148,0.967,-52.734,-25.940,43.152
-0.364,0.103,1.002,-35.828,-3.113,38.513
-0.342,0.036,1.006,-18.311,16.174,34.912
-0.302,-0.021,1.016,-3.601,30.701,32.349
-0.216,0.022,1.040,5.798,42.236,30.701
-0.126,0.092,1.064,11.719,51.086,28.625
-0.051,0.117,1.068,13.855,53.711,24.719
0.019,0.115,1.067,14.343,48.157,15.625
0.061,0.043,1.047,13.916,36.377,3.906
0.093,-0.072,1.038,10.071,22.278,-8.606
0.109,-0.196,1.025,5.127,9.888,-18.921
0.125,-0.314,1.011,2.380,2.441,-23.254
0.152,-0.434,0.978,-1.526,2.197,-20.752
0.205,-0.530,0.916,-2.869,8.484,-13.550
0.152,-0.479,0.911,-2.075,16.541,-6.042
0.200,-0.372,0.924,-5.859,26.245,10.498
0.198,-0.235,0.964,-3.235,36.255,20.447
0.198,-0.168,0.983,-3.052,37.659,22.888
0.197,-0.146,0.992,-8.118,28.015,17.944
0.176,-0.180,1.004,-14.099,11.169,5.371
0.180,-0.276,1.026,-21.179,-5.432,-4.944
0.176,-0.360,1.046,-27.832,-17.151,-10.376
0.178,-0.447,1.036,-34.973,-23.254,-9.766
0.171,-0.486,1.025,-37.476,-19.897,-5.981
0.146,-0.494,1.003,-36.438,-9.766,2.563
0.107,-0.450,0.972,-31.921,4.822,15.137
0.115,-0.337,0.940,-24.841,23.437,27.161
0.127,-0.223,0.910,-16.541,39.551,36.011
0.122,-0.139,0.889,-9.277,48.157,41.321
0.118,-0.093,0.875,-4.456,47.729,42.236
0.097,-0.075,0.872,-1.587,39.490,37.170
0.084,-0.110,0.880,-2.563,27.100,30.579
0.078,-0.134,0.901,-6.714,13.245,23.804
0.057,-0.175,0.919,-13.184,1.465,19.531
0.034,-0.186,0.937,-19.775,-5.432,19.958
0.007,-0.179,0.953,-23.437,-7.080,23.315
-0.004,-0.138,0.966,-23.193,-3.479,27.283
-0.015,-0.086,0.963,-19.165,2.075,30.518
-0.017,-0.035,0.966,-14.465,6.348,31.494
-0.017,0.002,0.971,-10.376,7.446,29.236
-0.005,0.022,0.984,-6.897,6.409,23.865
0.003,0.016,0.983,-4.089,3.784,17.090
0.035,-0.019,0.959,-2.380,-0.183,11.597
0.012,-0.012,1.001,-0.732,-2.930,4.517
0.021,-0.058,0.998,-2.625,-7.019,1.648
0.018,-0.076,1.004,-3.662,-9.216,-2.441
0.017,-0.102,1.016,-4.395,-12.146,-3.662
0.008,-0.099,1.027,-6.104,-15.015,-2.808
-0.013,-0.092,1.039,-6.592,-15.198,-1.099
-0.011,-0.093,1.041,-6.714,-12.695,0.671
-0.014,-0.078,1.049,-5.249,-8.240,1.465
-0.022,-0.068,1.056,-3.845,-3.784,2.075
-0.018,-0.075,1.043,-3.357,0.671,2.136
-0.009,-0.083,1.032,-3.296,3.601,0.549
-0.008,-0.097,1.029,-3.174,3.662,-1.526
-0.002,-0.113,1.031,-3.967,2.014,-2.686
-0.010,-0.124,1.041,-4.883,0.610,-3.174
-0.005,-0.162,1.031,-5.188,-0.183,-4.089
0.011,-0.175,1.030,-5.737,-1.099,-4.822
0.008,-0.183,1.031,-5.737,-1.770,-4.028
0.014,-0.172,1.031,-5.127,-0.427,-2.502
0.011,-0.169,1.023,-3.479,2.869,-0.977
0.009,-0.155,1.013,-2.197,6.653,1.587
0.004,-0.157,0.997,-2.441,9.277,3.967
0.007,-0.148,0.980,-3.418,10.620,4.517
0.003,-0.137,0.971,-4.517,9.949,4.150
0.002,-0.142,0.962,-6.714,8.484,3.723
0.010,-0.149,0.958,-8.667,6.470,2.319
0.011,-0.152,0.965,-9.766,3.296,0.916
0.006,-0.150,0.976,-10.132,0.427,0.000
-0.001,-0.155,0.987,-9.399,-0.366,1.221
-0.003,-0.160,0.993,-8.545,0.366,1.831
-0.002,-0.165,0.997,-7.080,2.014,1.831
-0.005,-0.167,0.991,-5.859,3.235,1.404
0.000,-0.168,0.988,-5.127,4.211,2.258
0.009,-0.171,0.979,-5.310,4.395,1.221
0.017,-0.173,0.976,-5.371,4.150,0.854
0.016,-0.177,0.963,-5.920,3.784,1.099
0.020,-0.166,0.953,-6.287,3.418,0.854
0.027,-0.176,0.944,-6.409,3.357,0.549

0.653,0.744,1.550,67.566,-47.546,-14.648
0.670,0.730,1.614,72.327,-48.645,-8.606
0.572,0.648,1.629,74.707,-50.232,0.977
0.469,0.703,1.658,80.017,-50.537,19.775
0.317,0.737,1.686,84.778,-43.945,46.814
0.184,0.923,1.737,82.458,-32.104,57.861
0.085,1.151,1.775,77.820,-22.949,68.237
-0.060,1.257,1.729,64.636,-13.489,70.679
-0.231,1.217,1.573,35.950,-1.831,56.519
-0.395,1.083,1.355,7.080,5.432,28.076
-0.542,0.903,1.134,-14.160,3.479,3.235
-0.793,0.763,0.939,-31.006,-3.540,-3.235
-1.169,0.682,0.735,-41.931,-5.493,9.888
-1.581,0.534,0.435,-42.419,12.329,26.733
-1.878,0.146,-0.002,-38.818,47.119,14.832
-1.915,-0.508,-0.473,-26.306,71.960,-52.063
-1.938,-1.328,-0.854,-5.310,62.805,-168.274
-1.837,-2.295,-1.118,26.611,23.193,-278.381
-1.711,-3.265,-1.173,63.477,-21.790,-343.933
-1.522,-3.923,-0.909,98.572,-60.608,-384.705
-1.233,-4.000,-0.406,134.644,-95.825,-398.865
-0.731,-4.000,0.279,167.053,-112.915,-393.921
0.153,-3.630,0.879,189.575,-77.515,-369.812
0.957,-3.089,0.930,173.157,47.546,-307.922
1.406,-2.563,0.588,118.469,216.125,-196.777
1.716,-1.987,0.204,67.200,313.904,-65.063
1.765,-1.516,-0.091,28.564,296.265,29.602
1.477,-1.275,-0.208,-9.949,177.490,85.266
0.897,-1.161,-0.135,-40.222,22.156,129.150
0.259,-1.046,0.177,-47.729,-104.675,163.879
-0.379,-1.000,0.594,-46.570,-177.795,181.824
-0.911,-0.968,0.974,-48.706,-205.933,182.251
-1.233,-0.992,1.217,-61.890,-195.679,167.725
-1.036,-1.022,1.001,-91.919,-150.940,151.611
-1.117,-0.989,0.763,-125.061,-106.628,131.836
-1.008,-0.871,0.523,-146.729,-82.092,134.888
-0.994,-0.715,0.369,-144.592,-67.810,136.475
-0.952,-0.575,0.337,-126.953,-61.707,129.211
-0.906,-0.484,0.354,-108.582,-59.631,119.141
-0.871,-0.429,0.411,-92.041,-57.007,106.445
-0.793,-0.387,0.487,-75.378,-53.772,90.942
-0.702,-0.323,0.581,-62.317,-47.668,78.064
-0.614,-0.259,0.670,-54.749,-42.358,71.045
-0.553,-0.211,0.750,-52.612,-38.757,69.763
-0.530,-0.192,0.815,-52.490,-38.452,70.740
-0.501,-0.190,0.867,-51.270,-39.063,67.139
-0.482,-0.232,0.907,-50.049,-38.269,58.655
-0.450,-0.261,0.937,-46.143,-35.095,49.133
-0.410,-0.249,0.966,-38.635,-27.710,44.128
-0.388,-0.210,0.984,-29.541,-16.663,45.288
-0.388,-0.164,0.984,-19.226,-5.310,50.598
-0.422,-0.139,1.023,-14.099,2.014,54.932
-0.424,-0.125,1.038,-8.728,1.343,53.345
-0.408,-0.093,1.053,-4.822,1.099,46.326
-0.392,-0.125,1.046,-4.150,-1.587,37.354
-0.375,-0.154,1.028,-3.601,-3.662,28.748
-0.378,-0.181,1.001,-3.479,-4.883,22.705
-0.376,-0.222,0.962,-2.991,-3.662,20.020
-0.336,-0.210,0.956,-1.831,3.540,21.362
-0.261,-0.137,0.963,2.319,14.648,26.794
-0.245,-0.112,0.961,3.723,24.475,36.072
-0.241,-0.070,0.958,4.150,28.992,43.152
-0.264,-0.047,0.957,2.869,27.954,46.387
-0.273,-0.033,0.963,-0.549,22.339,42.603
-0.268,-0.039,0.963,-5.554,15.076,32.532
-0.250,-0.061,0.948,-12.451,6.958,22.095
-0.237,-0.083,0.933,-19.104,-2.136,10.803
-0.230,-0.118,0.921,-24.170,-9.827,1.892
-0.215,-0.131,0.928,-25.757,-14.771,-1.953
-0.202,-0.115,0.959,-24.231,-16.052,-2.502
-0.195,-0.087,0.990,-21.118,-12.451,-0.122
-0.173,-0.046,1.008,-16.479,-5.310,2.319
-0.159,-0.046,1.014,-11.719,1.709,3.906
-0.145,-0.069,1.019,-7.751,7.202,6.409
-0.131,-0.072,1.034,-5.676,9.338,8.728
-0.155,-0.060,1.041,-7.935,10.803,12.756
-0.182,-0.049,1.026,-12.756,14.771,15.930
-0.201,-0.057,0.990,-17.212,21.057,16.357
-0.203,-0.056,0.939,-19.409,26.001,14.832
-0.201,-0.037,0.921,-18.860,27.161,12.451
-0.197,-0.034,0.920,-16.968,27.039,9.888
-0.176,0.001,0.945,-14.038,28.076,6.470
-0.157,0.009,0.967,-11.475,30.518,3.967
-0.140,0.020,0.982,-10.193,33.325,3.784
-0.144,0.032,0.990,-10.376,35.522,4.211
-0.135,0.029,0.985,-12.573,37.354,4.089
-0.130,0.016,0.966,-15.442,38.086,3.601
-0.111,0.000,0.937,-18.005,37.048,2.808
-0.101,-0.013,0.920,-18.799,34.668,0.854
-0.097,-0.016,0.924,-18.372,31.738,-0.793
-0.099,-0.005,0.941,-16.113,30.884,-3.235
-0.108,-0.003,0.948,-13.062,32.959,-5.188
-0.105,-0.013,0.948,-10.071,36.743,-6.287
-0.083,-0.006,0.955,-6.042,40.344,-6.897
-0.064,-0.003,0.957,-2.075,44.067,-5.981
-0.054,-0.000,0.948,0.366,46.570,-4.272
-0.047,0.021,0.948,1.892,46.265,-2.991
-0.046,0.023,0.957,2.258,44.006,-3.357
-0.049,0.017,0.969,1.404,39.917,-5.493
-0.051,0.018,0.978,0.061,34.729,-8.972
-0.057,0.014,0.996,-1.648,29.358,-13.184
-0.065,0.001,1.008,-3.479,24.231,-17.761
-0.067,-0.005,1.018,-4.700,21.729,-21.118
-0.076,-0.022,1.020,-5.249,22.156,-23.132
-0.062,-0.017,1.019,-4.700,25.940,-24.841
-0.038,-0.008,1.011,-3.540,31.799,-25.757
-0.018,-0.005,1.000,-2.686,36.743,-25.879
0.000,-0.003,0.987,-2.136,39.368,-25.024
0.026,0.002,0.979,-1.465,39.429,-25.818
0.054,0.011,0.966,-0.854,38.208,-26.367
0.078,0.015,0.956,0.061,36.438,-26.001
0.094,0.027,0.950,2.197,33.386,-26.123
0.095,0.036,0.949,4.700,29.480,-24.841
0.096,0.034,0.950,7.385,25.269,-24.841
0.096,0.028,0.955,10.254,21.362,-23.926
0.091,0.016,0.977,13.062,17.700,-21.667
0.073,0.009,1.008,14.587,15.564,-20.203
0.074,-0.004,1.035,12.390,16.541,-21.057
0.087,-0.016,1.047,8.118,19.226,-20.630

0.523,1.163,1.646,98.328,-62.622,49.072
0.458,1.173,1.634,117.188,-43.274,49.438
0.259,1.075,1.533,119.080,-27.527,50.476
0.016,0.980,1.398,108.643,-20.142,40.222
-0.209,0.897,1.267,87.097,-26.001,10.559
-0.417,0.912,1.207,63.599,-43.945,-25.635
-0.578,0.945,1.157,51.208,-58.594,-47.852
-0.710,1.038,1.142,50.537,-55.969,-57.861
-0.855,1.094,1.090,63.721,-41.138,-54.321
-1.022,0.917,0.890,75.012,-13.611,-39.795
-1.249,0.558,0.537,67.749,22.339,-34.424
-1.479,0.183,0.178,59.509,49.744,-50.842
-1.701,-0.259,-0.147,53.345,60.608,-76.050
-1.936,-0.908,-0.478,39.673,63.538,-100.708
-2.107,-1.666,-0.797,15.381,68.115,-135.498
-2.248,-2.552,-1.097,-4.883,72.327,-187.805
-2.079,-3.344,-1.245,5.188,73.853,-255.249
-1.603,-3.881,-1.047,53.345,66.284,-343.384
-0.872,-4.000,-0.643,104.614,63.110,-399.902
0.220,-3.646,-0.432,138.489,103.699,-395.935
0.938,-3.167,-0.542,121.887,196.960,-333.252
1.749,-2.597,-0.676,92.041,248.291,-248.840
2.423,-2.096,-0.469,75.378,181.580,-196.960
2.418,-2.010,-0.246,45.898,42.419,-151.123
1.691,-1.940,0.048,-2.075,-95.581,-59.265
0.690,-1.627,0.467,-32.654,-194.397,72.327
-0.457,-1.371,0.951,-61.890,-218.811,183.105
-1.440,-1.083,1.378,-84.412,-187.073,245.667
-1.756,-0.767,1.416,-85.632,-127.014,244.507
-1.651,-0.763,1.090,-108.032,-61.707,198.853
-1.441,-0.870,0.655,-132.202,-34.668,158.264
-1.185,-0.843,0.344,-143.250,-28.931,149.231
-1.130,-0.723,0.226,-134.460,-40.466,145.325
-1.094,-0.584,0.250,-117.554,-61.279,137.085
-1.129,-0.422,0.391,-101.013,-79.651,124.451
-1.189,-0.120,0.625,-80.627,-88.745,115.906
-1.242,0.141,0.818,-61.462,-77.820,118.347
-1.246,0.293,0.910,-46.997,-45.837,117.126
-1.162,0.329,0.939,-36.926,-10.071,101.868
-1.016,0.232,0.899,-31.067,12.085,75.012
-0.808,0.053,0.854,-26.489,16.174,43.701
-0.590,-0.162,0.810,-23.499,5.371,15.747
-0.394,-0.384,0.810,-22.766,-7.446,-2.197
-0.239,-0.537,0.855,-23.010,-18.555,-6.348
-0.141,-0.624,0.935,-19.775,-23.376,1.404
-0.132,-0.673,0.995,-16.663,-19.592,16.113
-0.164,-0.689,1.008,-15.747,-11.536,31.067
-0.188,-0.660,1.027,-22.400,-4.028,36.865
-0.182,-0.655,0.991,-30.396,-1.282,37.231
-0.181,-0.680,0.938,-34.607,1.770,32.166
-0.167,-0.683,0.896,-36.072,4.272,29.053
-0.162,-0.680,0.870,-35.461,6.531,26.917
-0.168,-0.698,0.833,-33.630,9.277,28.442
-0.167,-0.673,0.820,-32.654,14.038,34.607
-0.152,-0.575,0.839,-32.349,20.996,43.274
-0.175,-0.508,0.843,-34.668,30.640,53.406
-0.213,-0.452,0.839,-35.461,38.879,62.927
-0.232,-0.373,0.843,-33.569,43.701,66.101
-0.255,-0.342,0.825,-34.424,45.410,64.575
-0.246,-0.338,0.791,-36.987,43.457,59.631
-0.227,-0.324,0.756,-39.734,37.476,51.392
-0.197,-0.334,0.729,-41.992,30.334,45.349
-0.163,-0.328,0.730,-41.931,23.010,41.443
-0.118,-0.248,0.794,-37.720,17.944,40.955
-0.109,-0.202,0.837,-32.410,17.029,44.067
-0.077,-0.200,0.883,-28.320,18.677,48.462
-0.056,-0.172,0.935,-25.085,18.433,53.589
-0.099,-0.126,0.959,-27.222,16.235,59.692
-0.165,-0.083,0.970,-32.166,16.113,63.354
-0.226,-0.056,0.961,-35.889,18.921,60.608
-0.244,-0.040,0.918,-37.354,24.231,50.293
-0.219,-0.046,0.859,-36.133,29.663,38.574
-0.151,0.012,0.841,-31.677,32.776,29.480
-0.068,0.103,0.860,-23.621,35.278,22.766
-0.017,0.126,0.888,-17.090,35.706,18.311
0.014,0.150,0.934,-11.841,31.433,14.893
0.028,0.144,0.993,-9.094,24.658,12.512
0.028,0.135,1.044,-10.437,17.212,11.536
-0.030,0.133,1.082,-15.198,12.695,11.414
-0.076,0.118,1.087,-22.278,14.099,10.681
-0.099,0.101,1.059,-27.222,20.447,7.751
-0.110,0.092,1.004,-30.212,28.015,6.287
-0.111,0.108,0.947,-31.555,34.851,6.775
-0.071,0.183,0.920,-29.541,41.077,5.981
-0.021,0.236,0.911,-23.621,45.044,3.357
0.016,0.238,0.903,-16.113,43.701,0.793
0.042,0.269,0.917,-7.629,38.330,-2.197
0.064,0.249,0.932,-2.441,31.067,-4.211
0.062,0.227,0.943,0.183,25.024,-4.761
0.054,0.186,0.952,2.075,20.935,-4.578
0.028,0.162,0.963,2.747,17.883,-2.441
-0.007,0.138,0.967,2.563,16.785,-0.671
-0.032,0.128,0.974,1.404,17.700,0.061
-0.062,0.116,0.989,1.221,18.555,0.244
-0.078,0.145,1.017,3.235,19.958,-1.831
-0.071,0.158,1.047,5.981,21.423,-7.202
-0.038,0.152,1.063,8.484,22.400,-15.137
0.005,0.128,1.070,11.414,21.240,-22.644
0.033,0.095,1.073,13.733,18.555,-27.527
0.055,0.065,1.072,15.259,15.747,-29.358
0.080,0.021,1.071,16.357,15.015,-28.503
0.090,0.001,1.068,17.395,15.320,-25.269
0.091,-0.033,1.069,18.127,16.602,-20.264
0.093,-0.062,1.069,18.738,17.761,-17.578
0.092,-0.073,1.064,18.372,17.883,-15.869
0.088,-0.080,1.067,16.418,17.456,-14.893
0.074,-0.085,1.072,13.733,16.724,-15.137
0.062,-0.081,1.073,10.681,16.663,-15.686
0.083,-0.087,1.041,8.545,17.395,-17.700
0.047,-0.076,1.025,7.141,19.287,-20.813
0.091,-0.089,1.001,0.305,17.883,-18.616
0.084,-0.081,0.988,-2.930,17.029,-16.785
0.100,-0.078,0.968,-2.930,16.052,-14.709
0.093,-0.076,0.960,-1.892,15.015,-12.939
0.090,-0.072,0.957,0.427,14.282,-11.169
0.084,-0.071,0.957,2.991,13.733,-10.254
0.077,-0.068,0.962,4.944,11.780,-9.521
0.076,-0.064,0.968,6.470,9.583,-9.949
0.087,-0.061,0.974,6.897,7.812,-11.841

0.742,0.869,1.385,72.510,0.183,2.258
0.823,0.792,1.395,60.547,-23.193,-1.404
0.794,0.681,1.384,44.922,-45.471,4.089
0.688,0.575,1.348,30.518,-56.396,16.235
0.527,0.536,1.321,20.691,-56.641,29.358
0.429,0.601,1.344,17.578,-50.964,41.565
0.372,0.726,1.359,22.583,-43.640,50.293
0.317,0.865,1.387,30.273,-34.363,51.086
0.262,1.009,1.404,35.095,-27.039,46.326
0.094,1.048,1.373,35.339,-20.447,42.542
-0.128,1.021,1.301,29.480,-14.343,30.151
-0.368,0.925,1.153,16.663,-10.559,11.536
-0.627,0.784,1.022,4.028,-8.301,-10.254
-0.899,0.661,0.943,-0.549,-9.827,-26.306
-1.173,0.518,0.814,-0.793,-8.057,-29.297
-1.414,0.339,0.578,-2.686,5.127,-34.180
-1.609,0.109,0.326,2.930,18.311,-60.852
-1.734,-0.256,0.087,16.846,20.569,-111.084
-1.804,-0.794,-0.155,35.156,15.137,-183.472
-1.724,-1.574,-0.345,58.167,2.991,-254.456
-1.655,-2.377,-0.434,81.726,-10.437,-311.401
-1.632,-3.024,-0.375,107.361,-24.597,-347.351
-1.474,-3.491,-0.286,134.033,-45.471,-369.690
-1.092,-3.608,0.185,126.160,-73.425,-373.596
-0.671,-3.436,0.397,163.940,-75.134,-378.479
-0.052,-2.952,0.385,194.458,10.315,-368.896
0.639,-2.593,0.152,140.991,146.301,-301.514
1.237,-2.256,-0.108,90.881,233.948,-224.487
1.704,-1.939,-0.245,70.862,219.482,-170.166
1.719,-1.797,-0.304,39.429,133.667,-119.446
1.246,-1.666,-0.260,-6.104,27.710,-42.542
0.577,-1.332,-0.053,-36.743,-67.078,53.345
-0.250,-0.942,0.323,-44.922,-131.775,140.686
-1.061,-0.576,0.732,-36.072,-163.757,189.758
-1.590,-0.124,1.096,-35.706,-145.020,198.486
-1.729,0.226,1.204,-44.189,-86.243,176.392
-1.628,0.302,1.090,-50.659,-17.517,135.925
-1.355,0.215,0.853,-41.687,26.611,97.534
-1.074,0.033,0.639,-18.677,49.133,70.374
-0.816,-0.183,0.475,5.005,52.734,48.950
-0.567,-0.339,0.542,16.479,45.532,34.912
-0.439,-0.483,0.625,24.414,18.433,28.259
-0.385,-0.561,0.740,33.203,-10.742,21.912
-0.368,-0.632,0.905,35.095,-33.508,17.700
-0.399,-0.714,1.026,28.381,-48.035,15.991
-0.357,-0.807,1.104,12.695,-50.171,12.268
-0.289,-0.883,1.085,-8.118,-46.021,7.080
-0.244,-0.937,1.040,-23.193,-36.682,11.719
-0.298,-0.986,1.019,-29.907,-23.132,24.719
-0.275,-0.979,0.978,-31.738,-6.348,44.250
-0.263,-0.937,0.933,-29.053,13.489,58.472
-0.219,-0.901,0.881,-25.391,32.532,67.322
-0.175,-0.870,0.838,-24.048,41.687,72.998
-0.140,-0.854,0.830,-25.574,36.316,74.463
-0.126,-0.879,0.833,-33.447,20.203,74.341
-0.144,-0.887,0.845,-44.800,-0.732,71.594
-0.180,-0.906,0.857,-56.396,-19.470,68.237
-0.209,-0.889,0.848,-66.833,-28.625,65.247
-0.232,-0.873,0.828,-73.730,-25.757,65.857
-0.249,-0.837,0.807,-75.806,-16.174,70.374
-0.247,-0.759,0.788,-70.923,-2.808,76.111
-0.216,-0.655,0.774,-64.270,11.353,81.177
-0.192,-0.564,0.759,-58.105,22.339,84.595
-0.182,-0.482,0.748,-54.626,26.428,85.449
-0.172,-0.410,0.749,-53.345,21.973,83.252
-0.183,-0.356,0.746,-54.993,10.559,76.050
-0.200,-0.327,0.763,-56.152,-3.845,66.284
-0.233,-0.313,0.793,-55.420,-19.043,56.580
-0.247,-0.290,0.819,-54.138,-29.907,47.363
-0.242,-0.243,0.865,-51.941,-32.654,39.856
-0.214,-0.176,0.920,-46.021,-27.588,35.645
-0.193,-0.136,0.943,-41.321,-15.747,37.292
-0.136,-0.076,0.956,-36.865,-0.793,39.612
-0.087,-0.027,0.952,-32.532,11.841,41.748
-0.069,0.004,0.935,-29.541,17.273,42.908
-0.058,0.025,0.921,-28.015,15.015,41.077
-0.068,0.019,0.907,-27.893,8.179,36.560
-0.071,-0.012,0.888,-28.320,0.183,31.860
-0.102,-0.029,0.882,-28.748,-4.883,28.992
-0.127,-0.023,0.888,-29.602,-6.409,26.733
-0.120,0.027,0.919,-30.029,-2.563,22.766
-0.023,0.088,0.937,-28.625,7.141,19.958
0.025,0.139,0.947,-24.170,17.944,17.883
0.094,0.154,0.952,-21.423,22.827,19.714
0.118,0.167,0.954,-19.165,21.729,21.240
0.124,0.176,0.962,-17.334,16.235,19.287
0.103,0.147,0.960,-17.578,8.911,16.357
0.085,0.108,0.956,-17.761,2.869,13.306
0.062,0.067,0.949,-16.052,-1.282,10.376
0.051,0.025,0.939,-13.855,-2.380,9.033
0.022,0.004,0.933,-11.536,-1.465,10.864
-0.024,0.008,0.937,-9.399,2.014,15.259
-0.045,0.037,0.954,-8.484,9.216,17.822
-0.021,0.074,0.961,-10.071,18.677,16.846
0.036,0.102,0.951,-11.597,26.917,14.954
0.085,0.130,0.956,-9.583,28.320,14.282
0.102,0.140,0.965,-8.118,23.804,13.367
0.108,0.122,0.976,-8.118,17.029,11.414
0.108,0.101,0.994,-9.033,11.169,9.033
0.100,0.075,1.001,-9.949,7.996,7.996
0.082,0.052,1.001,-10.376,7.568,8.179
0.063,0.026,1.002,-9.216,7.324,9.277
0.040,0.015,1.009,-6.714,7.263,10.559
0.011,-0.001,1.016,-4.761,8.057,11.353
-0.000,-0.006,1.027,-3.723,11.414,11.108
-0.008,-0.012,1.021,-3.906,16.113,10.925
-0.008,-0.014,1.000,-4.883,20.996,11.536
0.001,-0.018,0.971,-5.920,23.376,12.390
0.024,-0.017,0.951,-6.042,22.156,12.451
0.044,-0.023,0.939,-5.798,18.860,12.024
0.057,-0.032,0.941,-4.883,14.465,11.353
0.057,-0.041,0.949,-3.418,10.376,12.268
0.055,-0.060,0.963,-2.014,6.958,15.076
0.044,-0.068,0.979,-0.916,3.784,19.226
0.023,-0.062,0.988,-0.488,1.221,24.048
-0.028,-0.046,1.003,-0.366,-0.244,28.076
-0.059,-0.015,1.029,0.244,0.488,27.649
-0.073,-0.004,1.041,0.122,5.127,22.644
-0.062,-0.009,1.038,0.000,10.132,16.724

0.344,0.871,1.414,64.697,2.869,14.160
0.328,1.009,1.418,55.542,-13.733,7.080
0.244,1.057,1.425,41.809,-26.184,3.723
0.098,1.192,1.464,34.180,-31.128,10.193
-0.055,1.350,1.476,35.889,-23.437,34.912
-0.251,1.511,1.433,32.959,-0.610,63.599
-0.534,1.547,1.232,18.616,29.053,88.806
-0.787,1.433,0.913,-2.502,54.810,91.614
-0.952,1.186,0.568,-20.081,64.636,58.960
-1.042,0.853,0.247,-27.832,52.551,-0.366
-1.158,0.457,-0.036,-22.461,27.161,-70.007
-1.334,-0.020,-0.227,-4.822,-2.869,-135.864
-1.490,-0.567,-0.377,22.400,-28.687,-186.462
-1.689,-1.159,-0.477,53.040,-37.354,-221.130
-1.837,-1.891,-0.593,84.045,-29.419,-242.004
-1.937,-2.603,-0.661,112.854,-6.409,-279.480
-1.805,-3.260,-0.587,139.343,9.644,-338.013
-1.434,-3.757,-0.303,160.522,0.061,-397.278
-0.940,-3.917,0.158,177.307,-35.217,-434.570
-0.143,-3.537,0.590,189.514,-43.213,-433.472
0.575,-3.101,0.565,170.532,40.894,-383.240
1.099,-2.765,0.260,119.751,184.509,-291.748
1.636,-2.311,0.033,91.309,246.582,-201.111
2.018,-1.959,-0.011,78.064,184.937,-145.569
1.906,-1.856,0.035,38.025,49.683,-102.905
1.344,-1.773,0.173,-7.812,-94.666,-36.438
0.630,-1.569,0.427,-33.691,-194.214,53.223
-0.269,-1.347,0.740,-43.640,-225.464,138.306
-0.942,-1.172,1.147,-34.485,-204.590,200.989
-1.301,-0.993,1.370,-22.949,-167.358,215.820
-1.385,-0.944,1.288,-50.720,-104.736,194.336
-1.248,-0.982,0.978,-81.238,-45.044,171.021
-1.131,-1.004,0.645,-94.299,-4.395,158.813
-1.023,-0.972,0.412,-94.238,15.259,157.593
-0.919,-0.872,0.324,-88.318,15.808,162.048
-0.918,-0.713,0.338,-82.275,-2.197,165.405
-0.965,-0.511,0.429,-80.139,-30.273,162.842
-1.024,-0.328,0.537,-84.473,-58.044,149.658
-1.020,-0.191,0.642,-91.675,-74.341,128.967
-0.967,-0.143,0.719,-96.436,-74.890,108.154
-0.891,-0.151,0.765,-94.849,-60.425,89.783
-0.808,-0.186,0.784,-88.013,-38.574,78.369
-0.712,-0.234,0.782,-79.285,-15.137,71.777
-0.593,-0.254,0.776,-69.946,1.038,67.444
-0.465,-0.266,0.771,-60.974,10.742,64.209
-0.364,-0.247,0.789,-52.002,13.184,62.134
-0.312,-0.245,0.822,-43.762,10.132,62.195
-0.308,-0.249,0.865,-36.255,3.784,62.683
-0.320,-0.249,0.912,-29.541,-3.052,61.340
-0.349,-0.271,0.955,-24.780,-8.118,57.495
-0.358,-0.305,0.981,-22.034,-10.742,50.537
-0.341,-0.355,0.977,-21.179,-9.888,42.603
-0.303,-0.422,0.957,-20.447,-5.493,37.170
-0.263,-0.461,0.934,-18.433,1.404,37.598
-0.189,-0.456,0.913,-15.381,11.475,44.250
-0.128,-0.401,0.912,-12.451,23.315,54.321
-0.122,-0.350,0.888,-12.573,33.264,66.711
-0.130,-0.286,0.872,-12.939,38.147,74.524
-0.159,-0.225,0.862,-12.207,35.583,75.989
-0.179,-0.187,0.868,-12.085,27.466,70.496
-0.207,-0.176,0.880,-13.184,15.137,59.265
-0.228,-0.194,0.896,-15.747,2.075,46.753
-0.241,-0.218,0.919,-19.470,-6.531,35.767
-0.238,-0.252,0.919,-22.949,-9.644,28.503
-0.207,-0.296,0.914,-26.550,-6.287,26.245
-0.141,-0.265,0.935,-27.832,1.770,29.602
-0.055,-0.194,0.948,-26.672,12.207,37.659
-0.041,-0.167,0.937,-28.442,19.470,48.889
-0.026,-0.114,0.930,-28.198,21.057,55.237
-0.020,-0.067,0.925,-25.146,17.700,53.650
-0.035,-0.019,0.941,-22.034,10.925,49.438
-0.053,-0.012,0.954,-20.508,2.319,41.809
-0.083,-0.058,0.971,-21.179,-4.456,32.349
-0.086,-0.092,0.987,-19.897,-9.155,23.376
-0.102,-0.140,0.988,-20.142,-11.475,18.311
-0.116,-0.166,0.988,-20.508,-9.827,17.151
-0.128,-0.184,0.983,-21.484,-2.808,19.104
-0.115,-0.165,0.981,-24.292,9.460,24.353
-0.082,-0.093,0.955,-24.963,24.597,30.396
-0.027,-0.006,0.916,-23.804,37.720,35.034
0.024,0.072,0.874,-21.240,44.250,36.682
0.058,0.123,0.839,-16.479,44.128,35.828
0.061,0.178,0.838,-9.766,40.039,32.288
0.062,0.193,0.834,-4.089,32.471,28.076
0.028,0.152,0.840,-2.014,24.048,23.926
0.002,0.113,0.868,1.038,15.137,19.043
-0.040,0.057,0.900,2.136,6.287,15.381
-0.072,0.015,0.941,1.770,0.122,11.658
-0.106,-0.003,0.998,0.977,-1.465,9.216
-0.124,0.007,1.057,-0.977,2.197,6.592
-0.115,0.030,1.093,-5.737,9.521,2.563
-0.095,0.040,1.096,-10.986,16.479,-2.258
-0.075,0.057,1.084,-13.855,20.325,-5.432
-0.071,0.054,1.069,-14.099,22.278,-6.775
-0.063,0.036,1.053,-12.085,24.475,-8.484
-0.055,0.002,1.040,-8.301,26.550,-11.292
-0.043,-0.046,1.033,-4.089,26.917,-14.160
-0.039,-0.064,1.045,-0.244,25.208,-15.930
-0.048,-0.083,1.059,2.625,23.743,-16.235
-0.044,-0.108,1.077,4.211,24.719,-15.076
-0.026,-0.109,1.099,5.127,27.771,-11.841
-0.013,-0.093,1.109,4.761,31.738,-7.507
-0.011,-0.071,1.102,1.648,35.767,-4.272
-0.005,-0.044,1.078,-2.686,39.001,-2.625
0.010,-0.022,1.048,-5.859,41.626,-2.930
0.025,-0.015,1.015,-7.812,42.480,-4.456
0.038,-0.013,0.990,-7.874,41.077,-5.798
0.052,-0.041,0.981,-6.714,37.903,-6.836
0.075,-0.041,0.994,-5.310,33.569,-8.972
0.077,-0.045,1.000,-5.066,30.640,-9.033
0.077,-0.039,1.000,-5.371,29.724,-7.385
0.076,-0.036,0.989,-5.127,29.541,-6.226
0.090,-0.033,0.970,-5.493,28.992,-6.104
0.101,-0.023,0.958,-5.371,27.283,-6.165
0.106,-0.020,0.950,-5.188,24.902,-6.348
0.113,-0.012,0.946,-4.578,22.949,-6.836
0.121,-0.025,0.929,-4.211,21.118,-7.812
0.111,-0.025,0.931,-3.540,18.738,-10.132
0.132,-0.036,0.936,-3.662,15.076,-10.620

0.679,0.642,1.508,21.179,-47.485,-21.484
0.724,0.687,1.553,20.386,-44.312,-11.169
0.709,0.710,1.539,19.409,-36.316,-2.319
0.663,0.668,1.452,14.587,-30.090,7.874
0.546,0.670,1.380,10.315,-30.090,18.250
0.415,0.749,1.354,10.742,-32.898,30.640
0.388,0.912,1.378,16.907,-31.067,37.231
0.427,1.156,1.439,27.222,-23.743,39.612
0.447,1.337,1.446,35.339,-12.512,39.185
0.343,1.315,1.350,32.349,1.404,36.804
0.194,1.201,1.177,20.813,15.503,35.095
-0.026,1.069,0.974,5.737,22.949,33.325
-0.271,0.928,0.767,-6.287,22.888,32.959
-0.570,0.763,0.556,-13.489,18.433,30.212
-0.840,0.571,0.363,-16.357,7.935,18.311
-1.088,0.316,0.153,-14.771,-6.653,-7.812
-1.249,-0.058,-0.037,-4.456,-24.475,-54.321
-1.403,-0.554,-0.182,15.869,-43.030,-113.403
-1.490,-1.154,-0.295,45.288,-56.396,-169.373
-1.518,-1.834,-0.367,78.247,-59.265,-208.496
-1.532,-2.364,-0.360,113.098,-52.856,-228.638
-1.459,-2.796,-0.271,146.362,-32.837,-242.371
-1.216,-3.109,-0.108,170.654,-8.118,-264.099
-0.817,-3.260,0.110,182.556,10.803,-287.415
-0.183,-3.164,0.358,181.458,34.058,-291.931
0.418,-2.950,0.447,156.921,68.665,-266.052
0.841,-2.575,0.435,108.276,103.149,-214.417
1.203,-2.075,0.510,66.956,97.534,-155.151
1.394,-1.698,0.644,38.940,33.997,-104.614
1.295,-1.544,0.815,10.986,-54.260,-57.556
0.961,-1.448,0.950,-20.325,-121.582,1.709
0.438,-1.329,1.081,-46.265,-142.212,67.627
-0.044,-1.209,1.206,-65.735,-128.967,119.202
-0.469,-1.175,1.257,-83.923,-103.455,151.733
-0.723,-1.191,1.185,-99.243,-78.430,164.795
-0.808,-1.237,0.994,-119.019,-53.772,164.490
-0.882,-1.247,0.738,-139.282,-30.334,162.048
-0.885,-1.157,0.532,-146.912,-7.324,164.795
-0.934,-1.001,0.406,-137.817,4.883,165.405
-0.946,-0.855,0.335,-123.352,6.165,160.706
-0.917,-0.718,0.321,-107.727,-0.916,148.071
-0.891,-0.605,0.336,-95.642,-13.550,129.089
-0.833,-0.516,0.371,-91.553,-28.381,111.267
-0.768,-0.446,0.423,-90.393,-41.260,95.093
-0.666,-0.412,0.494,-87.280,-48.767,80.994
-0.553,-0.337,0.579,-83.435,-49.500,76.660
-0.461,-0.224,0.645,-80.994,-45.227,81.421
-0.407,-0.130,0.672,-79.163,-34.363,85.693
-0.387,-0.060,0.656,-73.975,-22.339,86.853
-0.367,0.004,0.710,-66.833,-13.733,85.205
-0.385,0.008,0.726,-54.504,-12.634,79.773
-0.391,0.006,0.772,-39.673,-12.207,71.411
-0.378,0.019,0.783,-25.757,-13.306,61.951
-0.317,0.082,0.833,-14.282,-8.667,54.810
-0.293,0.112,0.890,-5.005,-4.395,49.500
-0.242,0.114,0.927,1.343,-0.732,45.654
-0.188,0.117,0.967,7.812,1.099,42.480
-0.156,0.097,0.987,9.521,-0.916,42.603
-0.179,0.089,0.999,6.409,-7.080,43.762
-0.225,0.091,1.001,-2.136,-16.968,40.649
-0.271,0.084,0.988,-11.780,-26.062,35.706
-0.301,0.053,0.949,-18.921,-31.677,27.588
-0.304,0.035,0.918,-20.569,-32.166,18.982
-0.269,0.061,0.917,-17.212,-27.649,13.611
-0.218,0.109,0.935,-11.536,-20.264,11.536
-0.184,0.140,0.970,-5.554,-13.062,11.292
-0.143,0.156,0.993,-1.343,-8.057,8.667
-0.114,0.146,1.004,2.014,-6.470,4.883
-0.106,0.117,1.026,4.822,-8.972,1.831
-0.113,0.077,1.049,6.470,-12.573,1.526
-0.142,0.037,1.070,6.470,-15.137,1.343
-0.171,-0.003,1.069,4.822,-13.672,3.296
-0.201,-0.018,1.062,2.014,-8.606,6.714
-0.237,-0.026,1.031,-1.953,-1.587,10.681
-0.256,0.009,1.005,-4.089,8.057,15.076
-0.254,0.062,0.994,-2.991,19.348,18.372
-0.224,0.102,0.978,0.122,29.724,18.616
-0.196,0.120,0.972,3.418,35.645,15.259
-0.168,0.135,0.978,5.859,35.461,8.789
-0.148,0.110,0.991,7.141,31.677,0.916
-0.118,0.085,1.006,6.897,26.245,-5.310
-0.112,0.059,1.016,4.822,22.339,-7.935
-0.113,0.043,1.015,1.831,20.630,-7.507
-0.144,0.043,1.006,-1.221,21.545,-5.981
-0.176,0.054,0.992,-2.991,25.757,-4.272
-0.209,0.053,0.975,-3.906,33.020,-3.357
-0.188,0.092,0.978,-2.747,41.443,-4.517
-0.157,0.101,0.977,1.526,50.293,-7.874
-0.124,0.105,0.987,7.629,59.204,-12.207
-0.069,0.106,0.992,15.564,65.186,-17.883
-0.024,0.102,0.992,20.813,66.711,-26.062
0.014,0.082,0.990,22.095,62.622,-32.043
0.035,0.063,1.000,22.156,55.298,-34.973
0.038,0.037,1.011,20.203,47.119,-34.912
0.038,0.001,1.026,15.930,40.894,-32.288
0.023,-0.017,1.033,11.658,38.208,-27.954
-0.008,-0.022,1.022,9.033,39.368,-22.095
-0.024,-0.022,1.007,7.446,42.969,-17.151
-0.024,-0.002,0.998,7.324,47.302,-13.733
-0.012,0.017,0.985,8.850,52.246,-11.597
0.002,0.023,0.973,11.536,56.641,-10.681
0.019,0.017,0.960,14.404,59.021,-11.292
0.042,0.003,0.943,16.174,58.533,-13.489
0.055,-0.012,0.939,16.846,55.298,-15.625
0.062,-0.021,0.941,16.663,50.903,-16.785
0.063,-0.035,0.940,15.381,46.753,-18.127
0.074,-0.061,0.941,12.756,42.236,-19.165
0.117,-0.056,0.951,10.132,37.415,-20.386
0.151,-0.054,0.966,8.118,33.142,-19.592
0.175,-0.061,0.987,6.531,29.724,-17.761
0.189,-0.057,1.004,5.737,27.649,-13.977
0.198,-0.053,1.013,4.517,26.123,-11.169
0.197,-0.052,1.021,3.540,23.560,-8.667
0.185,-0.045,1.026,3.113,20.508,-6.592
0.169,-0.039,1.030,2.991,17.883,-6.226
0.155,-0.047,1.031,3.052,16.235,-6.836
0.152,-0.054,1.031,4.028,15.198,-7.202
0.156,-0.063,1.027,5.127,13.977,-8.972
0.147,-0.056,1.042,4.395,13.123,-11.230

0.554,0.678,1.653,15.991,-54.504,5.188
0.589,0.729,1.640,20.203,-51.086,3.784
0.585,0.714,1.568,24.780,-46.692,3.296
0.557,0.721,1.486,30.212,-45.715,6.042
0.502,0.796,1.442,38.147,-47.119,17.029
0.422,0.923,1.437,47.668,-45.593,34.912
0.328,1.128,1.472,57.739,-40.161,52.551
0.331,1.354,1.506,65.613,-33.386,63.049
0.304,1.526,1.511,66.528,-26.550,61.035
0.213,1.579,1.459,63.843,-18.982,48.340
0.069,1.546,1.336,58.716,-9.277,29.846
-0.100,1.540,1.164,57.922,1.526,13.123
-0.295,1.465,0.966,58.899,12.634,1.221
-0.505,1.365,0.805,65.186,16.724,-9.888
-0.764,1.238,0.684,74.707,11.108,-11.292
-1.111,0.960,0.527,73.792,7.080,-6.714
-1.435,0.623,0.358,67.505,10.559,-16.968
-1.655,0.144,0.116,54.504,17.395,-53.223
-1.799,-0.537,-0.197,36.560,17.334,-113.525
-1.937,-1.331,-0.482,24.658,4.700,-188.660
-2.010,-2.044,-0.709,29.419,-13.855,-260.864
-1.944,-2.843,-0.821,50.720,-27.832,-306.213
-1.777,-3.497,-0.752,74.951,-35.828,-345.825
-1.467,-3.911,-0.520,101.440,-40.222,-376.587
-0.975,-3.998,-0.168,124.207,-33.081,-389.648
-0.120,-3.705,0.143,141.846,5.981,-376.404
0.655,-3.280,0.116,129.639,105.408,-321.899
1.264,-2.755,-0.058,91.919,225.464,-228.210
1.786,-2.122,-0.165,63.416,259.399,-134.277
1.968,-1.714,-0.165,36.194,188.782,-68.542
1.698,-1.594,-0.107,0.183,68.726,-14.099
1.157,-1.495,0.085,-29.663,-50.110,50.415
0.494,-1.414,0.372,-43.518,-129.150,118.774
-0.195,-1.384,0.734,-44.922,-153.870,172.791
-0.793,-1.326,0.993,-39.307,-148.499,199.402
-1.153,-1.385,1.140,-48.645,-128.784,190.735
-1.192,-1.456,0.920,-78.735,-102.966,161.133
-1.236,-1.430,0.615,-117.920,-66.345,148.865
-1.208,-1.205,0.425,-131.226,-44.922,152.771
-1.206,-0.945,0.337,-122.925,-41.931,157.104
-1.191,-0.742,0.334,-109.192,-44.678,154.541
-1.123,-0.569,0.389,-96.008,-49.133,143.738
-1.031,-0.383,0.474,-87.830,-53.833,130.920
-0.932,-0.215,0.548,-81.726,-52.917,121.033
-0.808,-0.083,0.621,-73.792,-44.312,112.732
-0.684,-0.009,0.688,-64.514,-32.166,105.591
-0.594,0.008,0.750,-56.274,-22.583,98.206
-0.515,-0.009,0.790,-50.171,-18.127,88.806
-0.452,-0.054,0.816,-46.814,-17.029,78.491
-0.404,-0.092,0.839,-43.396,-18.372,69.885
-0.350,-0.080,0.874,-37.048,-18.677,63.599
-0.316,-0.083,0.900,-29.297,-15.869,59.998
-0.259,-0.029,0.943,-19.714,-10.864,58.472
-0.238,0.007,1.004,-12.695,-5.371,57.251
-0.217,0.012,1.034,-5.432,-4.578,50.476
-0.201,-0.015,1.066,0.916,-7.446,38.696
-0.195,-0.076,1.112,5.554,-15.564,27.466
-0.194,-0.101,1.151,9.155,-22.217,18.921
-0.222,-0.150,1.162,8.728,-22.949,15.808
-0.252,-0.199,1.147,8.118,-18.311,12.756
-0.246,-0.244,1.118,4.333,-8.789,15.137
-0.196,-0.208,1.108,-0.244,1.526,20.630
-0.143,-0.125,1.104,-4.578,13.794,27.710
-0.136,-0.082,1.083,-8.606,24.597,31.616
-0.105,-0.028,1.077,-12.085,28.931,30.212
-0.084,-0.025,1.049,-17.395,27.588,23.315
-0.055,-0.046,1.031,-22.461,21.362,14.038
-0.049,-0.083,1.021,-25.513,11.963,3.479
-0.042,-0.133,1.029,-28.564,4.272,-3.418
-0.032,-0.206,1.030,-29.724,0.854,-6.348
-0.034,-0.241,1.032,-30.762,2.258,-5.615
-0.062,-0.231,1.005,-32.471,7.690,0.427
-0.070,-0.177,0.957,-33.447,17.944,8.972
-0.034,-0.088,0.929,-30.029,29.785,14.526
0.027,0.012,0.928,-22.949,38.757,16.052
0.069,0.066,0.932,-16.541,42.175,15.015
0.099,0.108,0.943,-12.085,39.551,10.925
0.115,0.102,0.964,-8.545,32.837,5.615
0.121,0.077,0.999,-6.165,22.888,-0.244
0.110,0.017,1.020,-6.592,14.099,-3.906
0.104,-0.023,1.037,-9.460,9.033,-5.188
0.079,-0.067,1.040,-14.099,6.592,-4.150
0.056,-0.061,1.026,-17.456,7.996,-0.183
0.024,-0.063,0.999,-20.203,11.536,6.226
0.001,-0.051,0.976,-21.423,15.747,12.085
-0.017,0.009,0.971,-20.325,20.447,16.296
-0.017,0.072,0.970,-18.127,27.283,15.930
0.007,0.097,0.945,-16.113,34.485,12.390
0.041,0.098,0.921,-13.306,37.842,7.507
0.061,0.077,0.911,-10.620,35.461,2.747
0.075,0.062,0.919,-8.301,28.687,-2.625
0.067,0.046,0.929,-8.240,21.484,-4.883
0.043,0.034,0.938,-8.789,16.602,-5.127
0.029,0.020,0.944,-7.874,15.381,-5.066
0.010,0.018,0.953,-5.615,17.151,-4.211
0.003,0.030,0.967,-2.625,20.630,-2.258
0.015,0.049,0.991,1.038,24.231,-1.343
0.042,0.071,1.005,3.723,26.978,-2.625
0.069,0.087,1.014,5.615,28.259,-4.211
0.088,0.086,1.019,6.531,27.344,-4.883
0.100,0.079,1.028,7.385,24.597,-5.981
0.104,0.063,1.039,8.423,21.362,-8.057
0.100,0.043,1.062,8.545,18.738,-9.888
0.099,0.026,1.077,7.324,17.029,-12.207
0.094,-0.002,1.081,4.883,16.174,-14.221
0.101,-0.021,1.087,2.808,15.564,-14.038
0.093,-0.028,1.084,0.977,15.991,-11.292
0.084,-0.021,1.067,-0.549,17.883,-9.277
0.078,-0.023,1.046,-1.587,20.508,-7.996
0.081,-0.018,1.028,-1.770,22.705,-6.104
0.089,-0.015,1.007,-1.587,23.743,-5.249
0.101,-0.019,0.986,-1.526,23.682,-5.737
0.116,-0.035,0.962,-1.160,22.278,-6.287
0.132,-0.049,0.948,-0.793,19.714,-6.042
0.149,-0.056,0.938,-0.244,16.418,-7.385
0.140,-0.058,0.933,0.671,13.428,-8.057
0.143,-0.072,0.938,-0.610,10.010,-5.676
0.130,-0.068,0.951,-0.549,6.714,-4.883
0.110,-0.067,0.961,-0.427,4.150,-4.272

0.955,0.280,1.389,35.583,-57.678,-44.678
0.900,0.333,1.469,28.015,-69.397,-19.165
0.865,0.438,1.515,23.193,-63.293,5.920
0.813,0.555,1.510,24.109,-46.204,32.593
0.785,0.656,1.462,29.053,-25.879,52.490
0.762,0.735,1.369,30.823,-10.681,65.369
0.722,0.814,1.269,25.940,-8.179,70.313
0.614,0.943,1.225,15.076,-20.752,71.899
0.478,1.123,1.230,5.005,-36.682,72.632
0.324,1.324,1.238,-0.061,-42.358,71.716
0.168,1.567,1.248,0.305,-36.011,71.777
-0.077,1.687,1.193,3.113,-21.179,71.594
-0.359,1.611,1.028,-3.113,-1.099,60.791
-0.562,1.409,0.791,-8.362,17.151,27.710
-0.643,1.128,0.574,-4.700,22.583,-21.057
-0.713,0.811,0.432,5.920,13.977,-65.674
-0.912,0.577,0.384,15.381,-0.610,-86.853
-1.279,0.381,0.321,15.991,-6.592,-85.999
-1.700,0.119,0.120,9.216,4.700,-91.125
-2.065,-0.339,-0.168,2.991,23.743,-124.695
-2.321,-1.056,-0.427,9.583,34.302,-191.345
-2.348,-2.027,-0.606,38.086,35.400,-272.217
-2.173,-2.980,-0.708,76.721,36.133,-330.383
-1.818,-3.529,-0.682,118.713,51.331,-352.234
-1.268,-3.532,-0.588,159.546,87.646,-340.637
-0.522,-3.296,-0.576,183.228,143.372,-314.331
0.054,-3.115,-0.631,159.668,201.416,-276.550
0.700,-2.809,-0.530,121.643,194.031,-229.004
1.294,-2.418,-0.136,105.774,93.933,-191.956
1.533,-2.253,0.489,87.463,-63.477,-156.128
1.325,-2.258,1.091,59.631,-189.209,-104.431
0.843,-2.123,1.518,11.414,-226.135,-16.113
0.227,-1.835,1.639,-43.579,-190.247,82.275
-0.349,-1.513,1.588,-91.858,-122.864,163.513
-0.773,-1.307,1.412,-106.873,-79.163,208.801
-1.005,-1.239,1.195,-114.319,-56.519,214.294
-1.082,-1.290,0.955,-124.634,-46.509,205.566
-1.209,-1.271,0.772,-132.935,-42.297,201.050
-1.224,-1.120,0.580,-126.038,-32.104,203.064
-1.309,-0.969,0.505,-108.459,-23.193,194.153
-1.261,-0.798,0.501,-92.285,-21.729,172.974
-1.211,-0.689,0.493,-77.148,-21.729,147.583
-1.059,-0.565,0.505,-62.012,-20.813,122.681
-0.882,-0.493,0.570,-51.147,-19.836,108.154
-0.691,-0.364,0.668,-43.091,-20.447,105.469
-0.588,-0.287,0.761,-38.757,-22.766,111.023
-0.547,-0.202,0.848,-38.452,-27.893,113.525
-0.502,-0.153,0.905,-42.297,-29.480,104.919
-0.464,-0.126,0.925,-44.983,-27.649,91.919
-0.418,-0.075,0.950,-41.870,-23.987,79.834
-0.366,0.002,0.983,-34.363,-18.250,70.679
-0.273,0.112,1.023,-24.780,-10.132,62.805
-0.175,0.170,1.036,-15.381,-2.991,56.030
-0.112,0.169,1.035,-6.653,1.587,50.659
-0.081,0.140,1.036,0.122,2.686,44.861
-0.081,0.084,1.042,4.639,0.244,40.588
-0.069,0.018,1.040,6.287,-3.479,36.438
-0.098,-0.035,1.031,3.601,-7.874,32.654
-0.072,-0.063,0.996,-3.052,-9.888,34.119
-0.059,-0.052,0.953,-3.418,-8.667,34.668
-0.028,-0.014,0.973,0.916,-5.981,32.227
0.025,0.031,1.010,6.836,-3.906,29.846
0.075,0.054,1.038,10.498,-1.099,26.855
0.089,0.047,1.056,14.465,-1.282,22.766
0.092,0.028,1.066,15.564,-4.944,15.381
0.090,-0.015,1.068,12.024,-10.193,8.972
0.072,-0.088,1.054,5.615,-14.709,6.470
0.077,-0.156,1.037,-0.366,-16.602,7.202
0.067,-0.205,1.009,-5.554,-14.771,10.498
0.082,-0.199,0.986,-8.728,-6.531,17.944
0.132,-0.112,0.988,-7.996,6.470,26.917
0.158,-0.037,0.997,-4.211,20.813,33.691
0.166,0.017,1.005,-0.061,29.968,36.987
0.154,0.055,1.022,2.441,30.640,33.875
0.155,0.055,1.036,-0.977,25.452,24.597
0.160,0.010,1.040,-7.874,17.456,14.099
0.155,-0.035,1.040,-15.320,8.362,7.080
0.151,-0.093,1.036,-21.179,1.892,5.066
0.132,-0.115,1.015,-26.184,0.854,7.690
0.099,-0.106,0.987,-30.518,4.211,12.207
0.066,-0.054,0.945,-31.860,11.230,19.165
0.055,0.004,0.904,-29.785,20.508,24.597
0.051,0.077,0.871,-26.062,28.564,27.405
0.071,0.164,0.848,-20.142,33.752,26.672
0.086,0.218,0.836,-13.672,35.400,22.949
0.106,0.215,0.832,-7.996,30.640,17.578
0.115,0.165,0.854,-5.676,20.325,10.803
0.142,0.088,0.880,-3.784,9.033,3.540
0.167,0.026,0.906,-2.747,-0.671,2.502
0.198,-0.043,0.928,-0.732,-7.690,8.789
0.226,-0.115,0.941,2.991,-13.367,24.353
0.243,-0.118,0.958,9.094,-18.066,49.438
0.198,-0.063,0.976,15.198,-20.508,76.355
0.073,0.032,1.038,21.545,-20.447,93.323
-0.048,0.134,1.160,23.865,-17.700,91.980
-0.048,0.137,1.214,11.353,-7.263,67.993
0.001,0.074,1.188,-6.897,4.028,39.978
0.044,0.020,1.132,-19.653,8.362,22.644
0.048,0.013,1.099,-25.085,5.432,16.907
0.024,0.023,1.097,-26.917,-0.366,14.038
0.001,0.012,1.114,-26.550,-4.272,10.864
-0.009,-0.001,1.137,-24.841,-5.127,9.277
-0.029,-0.000,1.154,-23.315,-3.357,8.545
-0.049,0.007,1.145,-22.339,1.343,8.667
-0.064,0.019,1.113,-21.057,9.033,9.827
-0.070,0.031,1.067,-19.043,16.663,11.536
-0.069,0.046,1.025,-16.907,21.912,12.634
-0.067,0.058,0.994,-14.832,24.231,12.451
-0.064,0.061,0.964,-13.000,24.231,10.376
-0.057,0.061,0.943,-10.803,23.499,9.277
-0.053,0.057,0.938,-8.484,21.362,6.775
-0.055,0.057,0.941,-6.592,18.066,3.296
-0.048,0.057,0.939,-5.615,15.320,-0.183
-0.039,0.030,0.932,-5.493,12.451,-4.639
-0.008,-0.018,0.943,-4.517,9.338,-6.348
0.001,-0.043,0.972,-3.723,6.104,-4.639
0.000,-0.049,0.994,-5.188,5.127,-2.808
0.008,-0.050,0.988,-8.179,6.897,-2.686
0.017,-0.046,0.969,-9.888,9.338,-1.404

0.276,0.822,1.516,27.100,-20.386,44.739
0.159,0.906,1.546,32.776,-14.954,46.936
0.155,1.115,1.590,38.879,-8.911,47.546
0.213,1.335,1.576,39.368,-7.446,41.870
0.308,1.528,1.527,27.100,-16.296,29.724
0.374,1.665,1.471,11.414,-35.217,9.705
0.302,1.709,1.420,-1.099,-53.345,-9.216
0.153,1.766,1.387,-1.465,-59.143,-18.250
-0.015,1.762,1.279,5.676,-46.509,-16.418
-0.198,1.652,1.133,16.663,-21.790,-10.071
-0.436,1.607,1.000,27.771,1.709,2.441
-0.748,1.589,0.826,29.846,23.437,22.034
-1.014,1.484,0.581,25.330,42.114,21.606
-1.237,1.214,0.285,20.752,47.241,-13.794
-1.424,0.844,0.021,25.635,32.837,-76.721
-1.534,0.304,-0.191,42.847,3.540,-151.367
-1.562,-0.538,-0.381,65.613,-23.621,-230.286
-1.558,-1.546,-0.481,90.698,-47.485,-290.283
-1.626,-2.535,-0.522,115.967,-61.584,-319.153
-1.739,-3.374,-0.548,132.141,-61.157,-322.205
-1.709,-3.958,-0.462,143.311,-51.208,-326.477
-1.417,-4.000,-0.085,157.166,-52.673,-350.098
-0.927,-4.000,0.638,171.448,-79.346,-380.127
-0.083,-3.956,1.331,171.875,-81.543,-386.658
0.764,-3.333,1.208,133.972,35.767,-331.421
1.240,-2.744,0.525,74.341,263.245,-203.857
1.576,-1.995,-0.201,49.927,426.086,-55.542
1.686,-1.407,-0.747,38.879,438.660,44.434
1.500,-1.122,-0.999,18.555,310.181,87.036
1.130,-1.057,-0.845,3.418,114.441,107.910
0.543,-1.102,-0.307,11.841,-69.336,132.812
-0.139,-1.218,0.335,24.780,-189.758,151.428
-0.727,-1.240,0.875,15.564,-237.000,149.597
-1.175,-1.381,1.266,-18.738,-222.839,120.544
-1.222,-1.456,1.095,-60.303,-191.284,85.876
-1.207,-1.306,0.834,-87.280,-122.131,87.341
-1.148,-1.083,0.685,-83.679,-71.838,106.018
-1.084,-0.881,0.620,-72.693,-45.471,128.052
-1.045,-0.700,0.625,-67.505,-39.124,142.822
-1.018,-0.506,0.658,-70.374,-44.800,145.935
-0.966,-0.350,0.687,-73.608,-47.729,139.954
-0.886,-0.254,0.704,-67.993,-42.725,128.113
-0.801,-0.196,0.744,-56.519,-34.302,114.624
-0.714,-0.133,0.797,-46.570,-27.466,101.929
-0.641,-0.081,0.863,-41.931,-23.254,89.172
-0.536,-0.043,0.892,-41.321,-19.958,75.684
-0.451,-0.042,0.908,-40.405,-17.639,64.270
-0.409,-0.041,0.923,-37.415,-15.991,57.068
-0.362,-0.041,0.944,-35.583,-20.813,56.396
-0.329,-0.006,0.964,-25.085,-23.987,51.147
-0.300,-0.027,0.952,-14.771,-23.254,46.326
-0.273,-0.061,0.957,-2.380,-22.400,39.917
-0.249,-0.082,0.985,11.353,-21.667,34.363
-0.247,-0.109,1.007,23.010,-19.531,32.715
-0.240,-0.161,1.043,32.043,-16.968,32.776
-0.260,-0.209,1.109,38.086,-13.733,36.621
-0.267,-0.235,1.186,38.574,-6.836,39.368
-0.211,-0.225,1.240,28.442,5.554,41.504
-0.165,-0.205,1.209,12.268,18.860,42.419
-0.081,-0.171,1.141,0.244,27.283,41.992
-0.032,-0.145,1.078,-8.057,26.367,41.687
-0.010,-0.116,1.034,-11.536,18.311,38.269
0.000,-0.112,1.017,-11.414,7.690,31.372
-0.007,-0.130,1.022,-10.559,-3.479,23.621
-0.019,-0.154,1.029,-9.277,-12.268,16.846
-0.034,-0.183,1.015,-8.423,-16.846,12.024
-0.039,-0.220,1.004,-6.775,-16.968,10.559
-0.026,-0.240,1.001,-3.967,-11.658,15.686
-0.014,-0.183,1.026,1.465,-1.953,24.292
0.026,-0.087,1.062,7.507,11.780,32.837
0.069,-0.007,1.080,11.780,25.879,38.086
0.107,0.053,1.084,12.939,33.752,35.645
0.147,0.093,1.079,11.108,33.936,25.940
0.173,0.079,1.064,7.202,27.283,16.418
0.179,0.030,1.059,1.465,16.541,10.376
0.167,-0.004,1.071,-4.028,5.493,6.226
0.156,-0.062,1.071,-8.545,-3.113,2.869
0.140,-0.085,1.065,-12.756,-7.446,2.869
0.109,-0.098,1.051,-17.029,-7.263,8.301
0.072,-0.075,1.026,-20.813,-3.296,16.418
0.038,-0.019,0.991,-21.851,4.761,23.499
0.018,0.033,0.947,-20.081,17.578,29.602
0.030,0.101,0.911,-14.160,32.532,33.081
0.070,0.169,0.895,-2.991,47.668,34.424
0.088,0.192,0.880,9.521,57.861,33.264
0.098,0.184,0.875,20.020,59.937,30.518
0.104,0.157,0.885,27.039,52.734,26.123
0.097,0.117,0.910,29.297,40.161,21.973
0.096,0.068,0.947,27.466,26.733,19.104
0.062,0.021,0.992,22.278,15.137,14.709
0.046,-0.010,1.021,10.681,4.578,15.320
0.009,-0.000,1.082,-5.127,-1.404,16.479
-0.020,0.026,1.113,-16.296,0.000,14.648
-0.017,0.048,1.104,-22.583,9.521,6.775
0.015,0.059,1.061,-25.757,20.569,-0.793
0.045,0.060,1.022,-23.010,26.489,-5.493
0.058,0.064,1.005,-16.602,26.978,-7.507
0.047,0.071,1.008,-10.315,23.926,-8.972
0.032,0.064,1.024,-5.432,20.508,-10.864
0.028,0.031,1.046,-2.625,16.602,-14.465
0.042,-0.013,1.069,-1.770,11.353,-18.250
0.048,-0.065,1.091,-3.235,4.517,-18.738
0.064,-0.111,1.122,-7.019,-2.014,-14.709
0.058,-0.112,1.140,-12.024,-6.104,-8.667
0.051,-0.099,1.141,-18.005,-6.470,-4.517
0.053,-0.088,1.121,-23.010,-3.479,-2.197
0.070,-0.081,1.092,-24.536,0.793,-0.732
0.085,-0.073,1.059,-22.034,6.226,0.488
0.103,-0.076,1.028,-17.517,12.268,2.441
0.116,-0.070,1.003,-12.512,17.212,5.798
0.117,-0.069,0.984,-8.728,19.287,10.132
0.117,-0.062,0.967,-7.019,18.250,12.878
0.114,-0.062,0.954,-6.897,14.893,14.343
0.106,-0.058,0.947,-7.019,10.498,14.771
0.102,-0.067,0.945,-7.324,4.639,13.733
0.106,-0.088,0.951,-7.202,-1.343,12.146
0.115,-0.101,0.962,-7.385,-5.798,10.681
0.118,-0.108,0.968,-8.179,-8.057,10.254
0.124,-0.110,0.958,-10.132,-8.057,10.315

0.271,1.064,1.458,49.927,-12.329,62.134
0.265,1.289,1.466,51.086,-7.019,69.946
0.177,1.500,1.487,59.875,-4.211,84.351
-0.060,1.612,1.484,73.792,9.155,100.342
-0.392,1.727,1.475,93.445,37.170,114.380
-0.743,1.809,1.455,115.723,73.608,129.333
-1.025,1.751,1.344,114.624,104.248,126.160
-1.180,1.588,1.090,65.063,98.572,77.026
-1.194,1.258,0.684,-22.278,40.588,-16.663
-1.134,0.810,0.249,-101.990,-49.438,-127.686
-1.123,0.359,-0.099,-124.634,-141.724,-220.947
-1.199,-0.133,-0.290,-81.909,-202.148,-266.663
-1.378,-0.706,-0.253,0.305,-215.027,-270.020
-1.569,-1.351,-0.163,90.576,-178.711,-267.456
-1.709,-2.119,-0.085,162.781,-111.755,-280.396
-1.743,-2.897,-0.069,201.538,-39.490,-308.289
-1.596,-3.515,-0.040,210.205,16.846,-343.140
-1.262,-3.991,0.131,202.209,39.063,-383.179
-0.787,-4.000,0.579,194.336,26.489,-416.077
-0.174,-4.000,1.104,196.045,25.940,-413.452
0.561,-3.512,1.056,176.453,121.765,-344.543
0.978,-2.916,0.435,106.506,305.176,-212.646
1.203,-2.264,-0.241,39.612,419.312,-72.876
1.336,-1.593,-0.703,-4.089,397.156,11.353
1.258,-1.205,-0.914,-40.466,267.639,41.382
0.962,-1.060,-0.877,-61.707,94.299,55.481
0.486,-1.055,-0.584,-51.208,-62.073,84.534
-0.140,-1.021,-0.115,-13.672,-157.410,131.592
-0.781,-0.957,0.374,24.231,-183.350,183.350
-1.054,-0.896,0.707,44.495,-157.410,210.693
-1.200,-0.961,0.832,38.086,-116.089,192.688
-1.104,-1.132,0.697,4.517,-90.393,159.363
-1.019,-1.252,0.500,-31.738,-82.275,137.390
-0.986,-1.206,0.378,-56.396,-83.801,139.221
-1.026,-1.015,0.350,-71.106,-85.815,155.334
-1.134,-0.718,0.420,-75.745,-86.487,166.870
-1.249,-0.365,0.539,-71.045,-83.008,170.349
-1.271,-0.057,0.656,-61.646,-70.984,167.786
-1.223,0.084,0.703,-55.237,-47.852,152.222
-1.086,0.051,0.664,-51.086,-20.996,125.000
-0.886,-0.074,0.595,-44.861,-3.113,95.093
-0.684,-0.242,0.548,-37.598,1.587,70.374
-0.513,-0.386,0.557,-30.701,-1.160,55.054
-0.396,-0.506,0.605,-25.452,-5.493,51.941
-0.320,-0.515,0.697,-21.057,-10.498,58.716
-0.336,-0.450,0.784,-17.822,-13.977,66.345
-0.282,-0.375,0.853,-24.475,-17.639,74.524
-0.327,-0.274,0.887,-18.860,-23.132,65.613
-0.320,-0.234,0.915,-11.536,-31.860,50.720
-0.318,-0.222,0.959,-6.531,-41.931,37.170
-0.323,-0.244,1.010,-1.343,-47.668,26.062
-0.325,-0.292,1.049,1.953,-45.410,18.677
-0.299,-0.350,1.065,5.432,-36.438,12.573
-0.285,-0.469,1.070,4.944,-24.231,9.827
-0.252,-0.526,1.076,2.869,-10.742,14.709
-0.206,-0.460,1.078,-0.977,1.343,25.757
-0.182,-0.390,1.053,-8.728,15.381,40.283
-0.146,-0.305,1.030,-15.076,27.649,47.913
-0.106,-0.241,1.007,-18.066,31.677,49.255
-0.088,-0.194,1.001,-18.616,25.513,45.410
-0.092,-0.179,1.006,-18.677,12.268,37.720
-0.108,-0.203,1.030,-18.921,-2.563,25.940
-0.108,-0.264,1.055,-19.653,-13.916,15.686
-0.107,-0.332,1.078,-23.560,-21.973,7.141
-0.110,-0.376,1.076,-29.175,-25.146,3.174
-0.111,-0.415,1.061,-33.997,-21.301,4.517
-0.132,-0.450,1.033,-36.621,-10.559,12.573
-0.117,-0.389,1.016,-32.837,6.042,24.475
-0.106,-0.300,0.982,-26.672,28.381,36.072
-0.084,-0.237,0.944,-20.752,47.424,44.189
-0.072,-0.182,0.904,-14.832,56.885,45.654
-0.064,-0.144,0.875,-10.071,57.190,41.748
-0.051,-0.134,0.878,-7.996,49.133,35.461
-0.062,-0.156,0.882,-4.761,37.903,26.367
-0.052,-0.200,0.906,-3.174,26.978,15.869
-0.042,-0.238,0.935,-6.470,18.921,9.766
-0.046,-0.257,0.954,-10.925,15.137,9.216
-0.053,-0.269,0.962,-13.184,18.188,13.000
-0.035,-0.217,0.975,-14.893,25.330,18.738
-0.054,-0.153,0.966,-17.273,34.424,25.513
-0.051,-0.087,0.937,-19.470,42.664,28.259
-0.027,-0.038,0.905,-20.203,46.631,22.705
0.007,-0.012,0.877,-18.433,45.166,15.625
0.020,-0.016,0.861,-15.503,39.001,9.583
0.021,-0.036,0.874,-12.634,29.358,4.028
0.026,-0.075,0.913,-10.559,18.799,-2.441
0.020,-0.096,0.948,-10.986,11.169,-5.310
0.010,-0.114,0.966,-12.939,6.042,-6.958
-0.004,-0.120,0.985,-13.916,2.747,-5.920
-0.014,-0.124,1.009,-13.245,1.587,-4.456
-0.032,-0.089,1.031,-13.062,3.662,-0.488
-0.051,-0.051,1.028,-14.160,8.667,4.089
-0.054,-0.018,1.004,-15.808,12.817,3.174
-0.039,0.008,0.982,-16.846,13.123,0.671
-0.028,0.020,0.960,-16.541,9.094,-3.601
-0.018,0.021,0.950,-14.465,2.991,-7.690
-0.020,0.012,0.956,-10.193,-2.991,-10.254
-0.023,0.008,0.975,-4.883,-8.484,-12.268
-0.046,-0.007,0.994,1.404,-13.184,-14.404
-0.041,-0.029,1.021,4.517,-17.029,-13.733
-0.040,-0.065,1.062,6.409,-19.775,-11.292
-0.058,-0.076,1.109,6.409,-20.813,-8.301
-0.093,-0.070,1.159,4.333,-19.775,-6.958
-0.109,-0.048,1.193,1.343,-14.709,-8.545
-0.104,-0.049,1.182,-4.883,-4.883,-13.428
-0.079,-0.060,1.129,-10.742,5.127,-19.836
-0.045,-0.067,1.058,-12.329,12.756,-23.315
-0.028,-0.060,1.016,-9.216,16.235,-23.621
-0.025,-0.062,1.000,-3.906,17.151,-23.071
-0.019,-0.077,1.000,1.282,17.700,-22.461
-0.017,-0.078,1.011,4.333,17.151,-21.179
-0.023,-0.083,1.017,4.883,15.381,-19.531
-0.025,-0.107,1.019,4.639,13.611,-18.799
0.002,-0.136,1.034,4.150,11.169,-18.188
0.004,-0.140,1.047,2.625,7.812,-15.198
0.004,-0.133,1.045,-0.183,6.531,-11.658
0.002,-0.132,1.036,-2.869,6.836,-8.301
0.008,-0.140,1.020,-4.700,8.179,-6.042
0.013,-0.137,1.006,-4.395,9.827,-4.456

0.425,0.598,1.743,-2.319,-54.077,-7.019
0.438,0.654,1.768,-0.977,-41.931,5.188
0.393,0.699,1.725,7.324,-20.935,21.423
0.324,0.754,1.638,15.930,2.075,41.992
0.257,0.900,1.575,23.621,13.062,62.439
0.211,1.157,1.584,26.184,7.446,77.271
0.161,1.459,1.661,23.071,-9.094,80.750
0.075,1.610,1.700,16.968,-24.902,76.294
-0.089,1.615,1.652,11.047,-28.748,63.660
-0.242,1.504,1.498,7.324,-21.606,47.119
-0.386,1.370,1.282,6.836,-8.179,29.297
-0.491,1.248,1.020,12.329,4.639,17.151
-0.624,1.115,0.737,23.376,15.198,10.864
-0.821,0.987,0.488,38.025,17.639,1.648
-1.068,0.788,0.266,52.002,13.428,-16.541
-1.259,0.534,0.084,63.110,5.310,-47.668
-1.433,0.102,-0.115,64.636,-2.747,-86.243
-1.652,-0.327,-0.266,63.660,-13.916,-125.977
-1.884,-0.934,-0.332,73.914,-20.935,-157.715
-2.094,-1.707,-0.322,98.694,-13.611,-204.041
-2.143,-2.512,-0.269,133.911,10.803,-264.587
-1.947,-3.302,-0.233,158.813,49.683,-329.285
-1.487,-3.917,-0.178,166.016,86.365,-381.042
-0.892,-4.000,-0.135,158.203,115.112,-389.893
-0.280,-3.669,-0.110,141.296,144.348,-351.379
0.289,-3.276,-0.258,119.751,188.660,-293.457
0.778,-2.859,-0.459,78.247,226.440,-227.722
1.141,-2.295,-0.536,34.363,205.383,-160.034
1.330,-1.766,-0.386,8.057,114.319,-104.797
1.289,-1.512,-0.079,-7.202,-0.977,-62.256
1.042,-1.456,0.279,-17.700,-88.318,-14.282
0.641,-1.436,0.580,-23.071,-126.770,46.570
0.166,-1.418,0.819,-29.541,-124.451,108.521
-0.303,-1.411,0.946,-43.274,-98.145,157.959
-0.648,-1.359,0.936,-62.195,-73.853,182.312
-0.861,-1.349,0.764,-91.125,-59.814,182.312
-0.904,-1.295,0.494,-121.948,-49.744,170.593
-0.965,-1.165,0.276,-141.968,-40.833,159.607
-1.000,-0.961,0.157,-142.578,-38.574,152.039
-1.022,-0.747,0.135,-130.188,-42.725,143.127
-1.023,-0.567,0.198,-113.281,-51.697,128.784
-0.996,-0.415,0.316,-97.229,-61.035,111.023
-0.940,-0.302,0.448,-83.313,-62.561,93.628
-0.840,-0.266,0.574,-73.242,-54.810,80.017
-0.728,-0.249,0.674,-67.261,-40.405,72.266
-0.638,-0.206,0.743,-62.500,-22.339,72.327
-0.540,-0.132,0.790,-57.739,-1.831,77.332
-0.455,-0.035,0.824,-51.758,17.395,83.862
-0.416,0.052,0.835,-44.312,29.297,87.524
-0.395,0.110,0.856,-34.546,30.334,82.458
-0.373,0.124,0.901,-25.269,20.081,67.810
-0.356,0.090,0.951,-19.348,4.211,48.523
-0.317,0.022,1.006,-15.869,-9.521,30.640
-0.285,-0.060,1.034,-13.794,-17.090,18.066
-0.265,-0.122,1.060,-13.611,-15.686,11.780
-0.185,-0.137,1.099,-12.634,-10.010,12.451
-0.115,-0.091,1.130,-6.531,0.977,16.785
-0.083,-0.018,1.122,-2.808,13.733,24.963
-0.061,0.074,1.102,-0.732,22.095,31.555
-0.055,0.106,1.072,-0.122,23.499,32.837
-0.071,0.103,1.051,-0.977,17.639,29.480
-0.093,0.066,1.051,-2.991,8.911,24.902
-0.107,0.013,1.055,-3.784,1.282,17.090
-0.099,-0.048,1.048,-8.118,-2.808,11.047
-0.079,-0.089,1.026,-13.245,-4.028,7.690
-0.051,-0.111,0.997,-15.259,-1.953,9.033
0.003,-0.040,1.001,-13.184,3.723,12.573
0.050,0.018,1.007,-10.010,10.559,15.320
0.101,0.068,1.026,-5.554,14.282,15.381
0.119,0.081,1.054,-2.380,11.597,14.099
0.115,0.079,1.085,-1.038,4.761,12.085
0.091,0.065,1.102,-1.038,-2.625,10.132
0.056,0.034,1.116,-3.723,-8.118,10.437
0.007,0.004,1.125,-4.883,-11.902,10.010
-0.033,-0.036,1.125,-7.690,-13.184,10.803
-0.075,-0.061,1.114,-9.766,-11.963,12.390
-0.101,-0.082,1.098,-10.681,-7.935,13.184
-0.110,-0.088,1.064,-10.254,-1.404,14.404
-0.099,-0.069,1.032,-7.874,8.667,16.113
-0.070,-0.043,0.998,-2.686,21.179,18.799
-0.041,-0.009,0.972,3.906,32.227,21.790
-0.015,0.005,0.965,8.789,38.574,22.827
0.000,0.002,0.954,10.193,36.804,21.362
0.007,-0.000,0.954,8.667,27.283,19.287
-0.010,-0.016,0.971,4.944,14.465,16.907
-0.036,-0.034,0.991,1.343,3.662,15.381
-0.060,-0.061,1.001,-2.014,-1.587,14.343
-0.074,-0.083,1.010,-3.601,-1.709,13.977
-0.089,-0.097,1.005,-3.113,1.221,15.320
-0.108,-0.112,0.997,-2.258,7.141,18.005
-0.097,-0.106,0.988,1.038,14.343,20.447
-0.100,-0.097,0.973,4.150,21.790,22.827
-0.088,-0.071,0.951,7.202,28.076,24.292
-0.072,-0.048,0.943,10.437,33.020,24.719
-0.043,-0.034,0.945,11.047,33.569,24.170
-0.037,-0.037,0.939,6.287,26.978,21.667
-0.027,-0.039,0.942,-1.526,16.541,18.066
-0.038,-0.054,0.952,-9.155,6.104,16.418
-0.051,-0.058,0.962,-12.695,-0.122,13.733
-0.059,-0.069,0.964,-12.878,-1.221,11.902
-0.062,-0.067,0.967,-10.986,1.526,12.695
-0.071,-0.067,0.962,-9.399,5.554,13.550
-0.066,-0.053,0.954,-7.080,9.033,14.160
-0.048,-0.045,0.947,-5.249,10.315,12.146
-0.040,-0.041,0.941,-3.296,9.216,11.414
-0.031,-0.031,0.941,-1.099,7.141,9.521
-0.024,-0.039,0.946,0.000,5.432,8.362
-0.018,-0.048,0.957,0.916,3.418,8.240
-0.018,-0.058,0.967,0.977,1.526,7.874
-0.023,-0.075,0.974,0.977,1.343,9.583
-0.024,-0.079,0.978,2.441,2.258,10.376
-0.028,-0.073,0.987,4.333,3.601,10.498
-0.039,-0.076,0.999,5.371,4.700,12.390
-0.047,-0.073,1.006,6.042,4.761,11.536
-0.049,-0.080,1.016,6.042,4.883,10.010
-0.050,-0.093,1.024,5.859,5.066,10.437
-0.045,-0.102,1.030,5.554,5.188,9.216
-0.036,-0.113,1.032,4.639,5.981,9.094
-0.032,-0.116,1.029,3.113,6.409,8.667